millis,acc_x_c,acc_y_c,acc_z_c,gyro_x_c,gyro_y_c,gyro_z_c,imu_temp_c,acc_x_l,acc_y_l,acc_z_l,gyro_x_l,gyro_y_l,gyro_z_l,imu_temp_l,acc_x_r,acc_y_r,acc_z_r,gyro_x_r,gyro_y_r,gyro_z_r,imu_temp_r,obj_temp,amb_temp
7382, 0.778, 0.332, 0.635, 10.986, 16.541, 1.038, 27.434, -0.579, -0.804, -0.018, 19.348, 21.240, -8.667, 23.753, -0.256, 0.809, -0.544, -21.057, 23.193, 13.428, 21.216, 25.690, 20.570
7418, 0.666, 0.468, 0.768, 12.268, 10.437, 9.155, 27.452, -0.615, -0.808, -0.197, -22.949, -15.503, 2.808, 23.756, -0.131, 0.896, -0.571, 11.841, 20.874, 20.935, 21.198, 25.690, 20.570
7460, 0.700, 0.458, 0.836, 8.911, -0.610, 16.113, 27.440, -0.588, -0.973, -0.384, -26.794, -20.630, 11.047, 23.741, -0.202, 0.873, -0.729, 14.648, 10.071, -24.780, 21.219, 25.610, 20.590
7497, 0.824, 0.268, 0.735, -4.395, -6.409, 16.907, 27.458, -0.408, -0.952, -0.188, 4.272, -15.686, 6.958, 23.759, -0.409, 0.758, -0.737, 8.301, 6.897, -18.616, 21.219, 25.610, 20.590
7534, 0.828, 0.081, 0.682, 1.343, -4.089, 7.629, 27.458, -0.282, -0.932, -0.087, 4.028, -18.127, 6.592, 23.756, -0.416, 0.657, -0.784, -0.793, 5.249, -8.789, 21.222, 25.310, 20.590
7576, 0.819, 0.140, 0.577, 14.587, 3.052, -7.019, 27.446, -0.373, -0.821, -0.003, -0.793, -6.226, 21.423, 23.744, -0.329, 0.686, -0.635, -5.859, 8.118, 15.137, 21.210, 25.310, 20.550
7612, 0.743, 0.279, 0.571, 18.555, 13.794, -6.165, 27.446, -0.514, -0.796, -0.077, -24.658, -7.263, 16.846, 23.759, -0.260, 0.663, -0.512, -14.404, 14.160, 15.564, 21.210, 25.310, 20.550
7654, 0.560, 0.342, 0.769, 13.977, 15.686, 6.165, 27.437, -0.458, -0.802, -0.397, -22.705, -6.958, -4.822, 23.765, 0.003, 0.731, -0.656, 13.916, 22.644, 18.738, 21.213, 25.130, 20.550
7690, 0.512, 0.406, 0.859, 5.310, 5.798, 15.259, 27.449, -0.533, -0.814, -0.465, -17.517, -16.479, 1.099, 23.756, -0.027, 0.703, -0.608, -3.784, 14.648, -19.348, 21.219, 25.130, 20.590
7727, 0.629, 0.252, 0.717, -5.554, -2.197, 20.691, 27.410, -0.425, -0.839, -0.286, 4.517, -8.179, -18.555, 23.747, -0.229, 0.628, -0.625, 11.536, 13.550, -29.663, 21.207, 25.190, 20.590
7769, 0.751, 0.019, 0.711, -4.883, -7.385, 22.278, 27.437, -0.203, -0.890, -0.123, 15.503, -17.395, -15.381, 23.744, -0.395, 0.612, -0.846, 21.545, 10.742, -36.865, 21.195, 25.190, 20.590
7805, 0.918, -0.047, 0.578, 7.446, -4.639, 7.812, 27.437, -0.237, -0.936, 0.039, 17.883, -5.005, -3.174, 23.783, -0.583, 0.605, -0.797, -9.827, 8.362, -25.879, 21.222, 25.190, 20.590
7841, 0.874, 0.125, 0.633, 27.344, 4.944, -4.517, 27.446, -0.436, -0.902, 0.051, -8.545, -6.470, 7.385, 23.738, -0.314, 0.746, -0.723, -1.770, 8.545, 8.484, 21.195, 25.230, 20.590
7881, 0.828, 0.312, 0.583, 31.372, 0.549, 9.644, 27.437, -0.546, -0.895, -0.089, -12.329, -28.137, 15.381, 23.744, -0.382, 0.726, -0.528, -22.949, 13.489, -30.334, 21.198, 25.230, 20.590
7911, 0.840, 0.333, 0.426, 29.297, 6.958, 11.169, 27.473, -0.562, -0.795, 0.027, 6.165, -15.259, -1.648, 23.720, -0.406, 0.722, -0.396, -19.775, 19.226, -17.456, 21.228, 25.170, 20.590
7941, 0.841, 0.395, 0.431, 26.123, 9.705, 16.724, 27.434, -0.639, -0.792, 0.067, 2.319, -12.451, -14.404, 23.747, -0.425, 0.730, -0.315, -8.911, 26.184, -27.649, 21.216, 25.170, 20.590
7973, 0.847, 0.438, 0.396, 15.320, 12.085, 25.757, 27.428, -0.648, -0.767, 0.093, -9.094, -17.578, -20.020, 23.720, -0.469, 0.729, -0.313, 7.751, 22.034, -37.292, 21.204, 25.170, 20.570
8003, 0.833, 0.399, 0.482, 6.165, 10.864, 30.457, 27.470, -0.585, -0.846, -0.047, -15.198, -21.179, -27.527, 23.711, -0.477, 0.742, -0.411, 27.222, 14.221, -36.499, 21.192, 25.170, 20.570
8035, 0.865, 0.234, 0.459, -7.996, 7.507, 32.776, 27.443, -0.394, -0.868, 0.027, 15.076, -12.573, -32.654, 23.720, -0.564, 0.612, -0.505, 35.400, 14.038, -52.734, 21.207, 25.490, 20.570
8065, 0.915, 0.024, 0.437, -8.301, 9.033, 24.170, 27.437, -0.259, -0.773, 0.221, 15.869, -6.775, -29.053, 23.729, -0.652, 0.547, -0.631, 25.940, 9.216, -34.180, 21.231, 25.490, 20.590
8095, 0.841, -0.016, 0.539, 13.184, 11.780, 10.559, 27.458, -0.290, -0.773, 0.163, -27.283, -16.357, -2.991, 23.717, -0.497, 0.639, -0.744, 32.715, -3.662, 15.320, 21.225, 25.490, 20.590
8127, 0.820, 0.238, 0.549, 29.907, 7.141, 4.517, 27.464, -0.474, -0.882, -0.011, -31.555, -20.325, 17.334, 23.717, -0.354, 0.756, -0.618, -3.235, -5.066, 28.442, 21.222, 25.590, 20.590
8156, 0.879, 0.347, 0.551, 33.081, 1.648, 7.446, 27.449, -0.578, -0.916, -0.042, -16.663, -23.499, 8.728, 23.720, -0.510, 0.778, -0.551, -25.574, 21.179, -27.100, 21.216, 25.590, 20.590
8185, 0.939, 0.438, 0.567, 29.724, 0.610, 8.972, 27.464, -0.661, -0.974, -0.036, -12.756, -20.325, 3.479, 23.690, -0.539, 0.836, -0.439, -12.207, 20.081, -14.099, 21.210, 25.590, 20.590
8216, 1.036, 0.467, 0.525, 16.785, -0.977, 15.503, 27.449, -0.667, -1.020, -0.006, -9.888, -21.790, -2.136, 23.693, -0.637, 0.839, -0.465, 3.601, 12.146, -23.315, 21.195, 25.690, 20.590
8245, 1.055, 0.340, 0.521, 4.761, 3.479, 15.320, 27.455, -0.557, -1.008, 0.060, 5.005, -10.010, -18.677, 23.714, -0.652, 0.780, -0.549, 13.184, 12.024, -19.287, 21.219, 25.690, 20.610
8274, 1.015, 0.200, 0.519, 2.441, 9.033, 13.428, 27.476, -0.457, -0.948, 0.136, -1.099, -7.629, -18.250, 23.729, -0.608, 0.688, -0.637, 14.648, 13.000, -10.620, 21.207, 25.690, 20.610
8305, 0.953, 0.135, 0.530, 10.437, 14.465, 14.160, 27.449, -0.391, -0.911, 0.123, -12.146, -15.930, -9.766, 23.714, -0.482, 0.678, -0.692, 1.343, 24.170, 4.211, 21.189, 26.050, 20.610
8334, 0.860, 0.135, 0.578, 21.362, 17.944, 16.907, 27.449, -0.373, -0.863, 0.044, -26.001, -28.442, 1.099, 23.717, -0.389, 0.651, -0.680, -9.399, 28.870, -1.587, 21.210, 26.050, 20.610
8366, 0.781, 0.125, 0.551, 27.710, 21.545, 19.836, 27.464, -0.334, -0.856, -0.034, -29.602, -32.349, 4.333, 23.732, -0.384, 0.560, -0.625, -8.606, 39.551, -8.423, 21.228, 26.050, 20.570
8395, 0.723, 0.108, 0.554, 33.081, 25.452, 21.362, 27.461, -0.322, -0.801, -0.077, -26.672, -34.241, -0.122, 23.711, -0.355, 0.502, -0.628, -10.193, 45.105, -11.597, 21.222, 26.050, 20.570
8424, 0.647, 0.137, 0.684, 35.034, 22.827, 25.513, 27.455, -0.295, -0.860, -0.228, -32.959, -35.828, -8.484, 23.714, -0.300, 0.514, -0.726, -16.418, 52.673, -5.066, 21.198, 26.030, 20.570
8455, 0.735, 0.117, 0.753, 31.189, 14.954, 27.771, 27.458, -0.256, -0.943, -0.164, -23.254, -38.025, -0.854, 23.726, -0.408, 0.569, -0.717, -13.611, 47.302, -31.067, 21.198, 26.030, 20.570
8484, 0.880, 0.081, 0.602, 31.799, 17.761, 17.334, 27.446, -0.306, -0.984, -0.052, -20.569, -32.043, 0.488, 23.708, -0.492, 0.611, -0.700, -9.583, 38.086, -14.282, 21.204, 26.030, 20.570
8513, 0.996, 0.157, 0.674, 35.522, 19.043, 21.118, 27.464, -0.443, -1.106, 0.018, -27.222, -40.100, 2.136, 23.723, -0.535, 0.730, -0.789, 1.038, 49.988, -24.414, 21.201, 26.110, 20.570
8545, 1.131, 0.173, 0.627, 36.316, 26.184, 30.823, 27.473, -0.475, -1.145, 0.091, -18.494, -44.617, -5.310, 23.738, -0.608, 0.752, -0.786, -15.808, 50.415, -31.677, 21.231, 26.110, 20.550
8574, 1.049, 0.182, 0.687, 42.053, 39.978, 32.654, 27.461, -0.487, -1.086, 0.009, -30.823, -39.429, -12.878, 23.711, -0.563, 0.735, -0.776, -14.404, 64.514, -24.780, 21.186, 26.110, 20.550
8603, 0.925, 0.247, 0.677, 43.884, 38.940, 35.400, 27.479, -0.487, -1.004, -0.076, -22.522, -40.161, -15.625, 23.720, -0.404, 0.737, -0.665, -19.531, 54.810, -23.621, 21.225, 26.170, 20.550
8634, 0.729, 0.263, 0.647, 39.612, 37.598, 41.870, 27.461, -0.463, -0.844, -0.064, -23.804, -49.072, -13.977, 23.738, -0.288, 0.617, -0.604, -15.564, 48.584, -39.795, 21.201, 26.170, 20.610
8663, 0.628, 0.159, 0.668, 38.513, 31.921, 49.561, 27.464, -0.321, -0.833, -0.232, -38.086, -63.110, -13.000, 23.714, -0.236, 0.559, -0.680, -4.028, 49.988, -37.598, 21.189, 26.170, 20.610
8695, 0.481, 0.178, 0.658, 39.734, 23.315, 48.401, 27.470, -0.286, -0.707, -0.289, -6.897, -60.120, -24.841, 23.705, -0.167, 0.533, -0.648, -18.982, 29.114, -55.542, 21.219, 26.470, 20.610
8724, 0.474, 0.189, 0.576, 40.222, 11.719, 42.480, 27.473, -0.290, -0.613, -0.237, -10.498, -54.565, -28.015, 23.693, -0.205, 0.497, -0.530, -29.968, 37.354, -36.499, 21.204, 26.470, 20.610
8753, 0.470, 0.213, 0.554, 38.696, 7.935, 41.138, 27.470, -0.327, -0.612, -0.221, -9.705, -50.903, -18.860, 23.717, -0.227, 0.459, -0.437, -33.081, 36.072, -43.457, 21.222, 26.470, 20.570
8784, 0.484, 0.228, 0.601, 33.386, 1.892, 38.147, 27.464, -0.305, -0.665, -0.267, -9.766, -50.354, -13.550, 23.708, -0.279, 0.545, -0.462, -23.437, 2.197, -49.683, 21.210, 26.470, 20.570
8813, 0.618, 0.204, 0.506, 25.208, -4.761, 34.729, 27.482, -0.284, -0.719, -0.111, 8.484, -39.734, -9.521, 23.702, -0.351, 0.599, -0.518, -18.738, -34.058, -46.570, 21.192, 26.530, 20.570
8843, 0.796, 0.086, 0.456, 23.254, -1.404, 27.344, 27.479, -0.255, -0.801, 0.089, 13.489, -33.813, -10.986, 23.705, -0.562, 0.559, -0.512, -8.545, 18.982, -31.189, 21.207, 26.530, 20.610
8874, 0.963, 0.088, 0.410, 28.198, 1.831, 18.860, 27.476, -0.294, -0.850, 0.225, 12.878, -27.588, -2.930, 23.693, -0.794, 0.575, -0.431, -19.348, 33.020, -10.986, 21.198, 26.530, 20.610
8903, 1.051, 0.133, 0.380, 29.419, 10.620, 9.827, 27.452, -0.409, -0.911, 0.302, 4.761, -14.832, 2.563, 23.711, -0.719, 0.739, -0.492, -25.269, 3.662, -4.089, 21.207, 26.590, 20.610
8934, 1.038, 0.273, 0.533, 30.884, 19.409, 5.798, 27.479, -0.518, -0.977, 0.211, -9.583, -19.043, 3.845, 23.705, -0.651, 0.794, -0.510, -30.823, -14.099, -8.362, 21.192, 26.590, 20.590
8963, 1.002, 0.359, 0.607, 28.931, 19.836, 5.615, 27.470, -0.574, -1.029, 0.053, -24.841, -21.240, 8.789, 23.711, -0.614, 0.857, -0.490, -24.414, -18.127, -7.874, 21.201, 26.590, 20.590
8993, 0.987, 0.308, 0.584, 18.433, 14.709, 10.315, 27.482, -0.495, -1.070, 0.043, -9.460, -13.550, -0.122, 23.720, -0.586, 0.784, -0.501, -10.498, 36.011, -0.427, 21.213, 26.670, 20.590
9025, 0.904, 0.185, 0.620, 13.306, 9.460, 13.000, 27.479, -0.357, -0.982, 0.041, 3.357, -11.963, -13.184, 23.714, -0.607, 0.708, -0.555, -6.836, 30.151, 1.587, 21.195, 26.670, 20.590
9054, 0.884, 0.139, 0.595, 14.221, 3.479, 10.864, 27.467, -0.341, -0.911, 0.084, 0.916, -12.329, -2.258, 23.708, -0.543, 0.700, -0.552, -13.916, 10.864, 2.136, 21.192, 26.670, 20.590
9083, 0.848, 0.205, 0.581, 20.325, 3.174, 7.935, 27.482, -0.407, -0.901, 0.048, -8.484, -16.907, 4.089, 23.729, -0.484, 0.750, -0.491, -14.343, 3.052, -2.197, 21.189, 26.670, 20.590
9114, 0.848, 0.320, 0.600, 20.264, 1.038, 9.888, 27.461, -0.493, -0.945, -0.006, -8.911, -23.071, 8.057, 23.711, -0.471, 0.780, -0.419, -11.414, 4.822, -8.240, 21.192, 26.710, 20.590
9144, 0.917, 0.298, 0.558, 13.733, 0.000, 12.756, 27.467, -0.479, -0.959, 0.053, 0.122, -20.325, -2.014, 23.732, -0.543, 0.789, -0.440, -6.958, 14.709, -12.390, 21.192, 26.710, 20.590
9173, 0.930, 0.252, 0.584, 9.705, 1.282, 11.475, 27.488, -0.422, -0.953, 0.068, -6.592, -14.404, -4.883, 23.738, -0.605, 0.751, -0.463, 5.249, 11.780, -13.489, 21.204, 26.710, 20.590
9204, 0.928, 0.198, 0.564, 4.150, 2.258, 10.071, 27.479, -0.373, -0.900, 0.107, -9.399, -15.076, 1.709, 23.723, -0.619, 0.712, -0.500, 15.259, 16.846, -6.226, 21.192, 26.770, 20.590
9233, 0.921, 0.126, 0.510, 8.606, 8.545, 4.150, 27.482, -0.333, -0.838, 0.179, -22.339, -22.400, 14.526, 23.741, -0.551, 0.731, -0.515, 0.366, -2.380, -1.038, 21.195, 26.770, 20.590
9262, 0.860, 0.209, 0.565, 15.869, 11.780, 3.723, 27.467, -0.506, -0.816, 0.111, -49.316, -32.166, 40.344, 23.729, -0.387, 0.741, -0.498, 0.061, 19.104, -3.174, 21.210, 26.770, 20.590
9294, 0.671, 0.268, 0.636, 17.090, 21.423, 12.268, 27.476, -0.651, -0.752, 0.020, -73.853, -51.697, 14.709, 23.738, -0.283, 0.687, -0.576, -5.859, 27.588, -5.188, 21.192, 26.790, 20.590
9323, 0.576, 0.210, 0.776, 25.391, 24.353, 20.325, 27.482, -0.706, -0.548, 0.069, -210.083, -203.064, -25.696, 23.711, -0.236, 0.719, -0.722, -5.066, 33.630, -12.634, 21.210, 26.790, 20.590
9354, 0.625, 0.191, 0.863, 36.133, 16.907, 26.978, 27.476, -0.646, -0.719, -0.355, -360.779, -150.513, -29.358, 23.750, -0.288, 0.770, -0.739, -9.338, 25.085, -15.930, 21.198, 26.790, 20.590
9383, 0.763, 0.342, 0.772, 51.392, 3.113, 24.536, 27.461, -0.173, -1.069, -0.984, -167.175, -119.629, -95.581, 23.750, -0.476, 0.768, -0.527, -10.681, 18.555, -21.179, 21.210, 26.830, 20.590
9412, 0.909, 0.238, 0.691, 20.569, -0.549, 21.729, 27.470, -0.285, -1.125, -0.667, -28.320, -20.203, -75.378, 23.756, -0.723, 0.682, -0.564, 5.432, 23.682, -15.808, 21.192, 26.830, 20.590
9444, 0.958, 0.238, 0.753, -4.089, -6.042, 9.338, 27.479, -0.302, -0.947, -0.410, 16.968, 41.504, -61.707, 23.759, -0.682, 0.835, -0.623, 13.245, 9.888, 3.845, 21.216, 26.830, 20.590
9474, 1.006, 0.248, 0.596, -2.014, -1.099, -7.141, 27.485, -0.334, -1.038, -0.165, 0.183, 34.424, -40.100, 23.726, -0.486, 0.903, -0.513, -4.395, -27.527, -6.836, 21.222, 26.830, 20.590
9504, 0.862, 0.304, 0.653, -0.305, 0.488, -2.991, 27.476, -0.375, -0.919, -0.310, -14.587, -5.554, -14.282, 23.738, -0.440, 0.777, -0.523, 7.874, -12.573, -18.311, 21.228, 26.790, 20.590
9536, 0.752, 0.256, 0.669, 1.709, 0.732, 3.113, 27.473, -0.313, -0.861, -0.401, -10.986, -7.935, -12.024, 23.759, -0.373, 0.706, -0.597, 5.371, -0.610, -13.550, 21.210, 26.790, 20.610
9566, 0.661, 0.204, 0.661, 6.653, 1.953, 6.653, 27.476, -0.271, -0.752, -0.402, -1.160, -9.216, -8.972, 23.729, -0.271, 0.689, -0.603, -2.930, 3.845, -10.315, 21.207, 26.790, 20.610
9598, 0.543, 0.217, 0.681, 16.479, -1.953, 13.062, 27.479, -0.300, -0.688, -0.456, 4.211, -23.621, -1.770, 23.735, -0.181, 0.647, -0.604, -4.822, 9.094, -16.724, 21.192, 26.830, 20.610
9628, 0.471, 0.194, 0.684, 21.118, -7.446, 20.569, 27.461, -0.252, -0.629, -0.504, 12.878, -30.090, -3.784, 23.759, -0.185, 0.551, -0.579, -14.587, 15.625, -25.940, 21.213, 26.830, 20.590
9658, 0.441, 0.162, 0.621, 20.386, -14.832, 23.254, 27.494, -0.183, -0.552, -0.471, 23.315, -27.283, -3.906, 23.747, -0.232, 0.503, -0.509, -11.536, 12.207, -24.475, 21.192, 26.830, 20.590
9690, 0.498, 0.123, 0.549, 12.634, -21.179, 17.334, 27.494, -0.156, -0.579, -0.391, 21.484, -18.921, -6.165, 23.744, -0.312, 0.441, -0.430, 0.793, 7.690, -21.973, 21.201, 26.870, 20.590
9720, 0.493, 0.103, 0.564, 8.362, -24.658, 10.681, 27.479, -0.131, -0.583, -0.410, 28.259, -13.794, 0.122, 23.747, -0.307, 0.443, -0.496, 11.108, -13.611, -30.273, 21.216, 26.870, 20.590
9750, 0.555, 0.047, 0.555, 5.371, -31.616, 4.822, 27.476, -0.091, -0.621, -0.365, 37.415, -6.897, 3.479, 23.738, -0.402, 0.453, -0.556, 8.850, -6.226, -24.109, 21.195, 26.870, 20.590
9782, 0.635, 0.053, 0.497, 5.920, -33.264, -6.104, 27.476, -0.088, -0.668, -0.279, 38.391, -2.808, 16.113, 23.756, -0.483, 0.474, -0.429, 8.423, -25.696, -17.456, 21.195, 26.710, 20.590
9812, 0.721, 0.095, 0.417, 7.263, -35.217, -16.357, 27.470, -0.193, -0.737, -0.125, 36.133, -5.127, 25.146, 23.744, -0.544, 0.506, -0.405, 11.780, -36.987, 4.944, 21.198, 26.710, 20.590
9842, 0.893, 0.206, 0.358, 11.169, -33.691, -22.400, 27.473, -0.318, -0.873, -0.012, 21.912, -17.639, 29.907, 23.759, -0.623, 0.700, -0.352, 8.423, -35.522, 22.705, 21.201, 26.710, 20.590
9874, 1.023, 0.375, 0.435, 22.278, -29.846, -21.667, 27.458, -0.515, -1.015, -0.052, 14.709, -30.579, 42.786, 23.756, -0.624, 0.894, -0.515, 7.812, -17.273, 22.949, 21.198, 26.170, 20.590
9904, 1.050, 0.538, 0.509, 28.503, -24.841, -13.733, 27.479, -0.650, -1.048, -0.170, 21.301, -36.255, 47.668, 23.750, -0.550, 0.964, -0.433, -46.692, -5.798, 24.292, 21.210, 26.170, 20.590
9936, 1.066, 0.621, 0.435, 20.447, -17.090, -3.296, 27.458, -0.677, -1.045, -0.152, 37.964, -13.733, 56.335, 23.765, -0.498, 1.000, -0.268, -28.809, 15.808, 8.484, 21.195, 26.170, 20.550
9966, 1.010, 0.597, 0.417, 18.127, -8.179, 8.606, 27.461, -0.693, -0.954, -0.174, 61.890, 7.812, 58.289, 23.762, -0.458, 0.973, -0.284, -26.245, 16.785, -4.333, 21.195, 26.170, 20.550
9996, 1.036, 0.574, 0.409, 16.846, 2.075, 20.874, 27.470, -0.881, -1.092, -0.071, 97.778, 53.894, 30.884, 23.747, -0.520, 0.894, -0.283, -22.034, 32.410, -17.273, 21.174, 25.870, 20.550
10028, 1.030, 0.433, 0.434, -3.723, 3.784, 37.842, 27.482, -0.643, -0.930, 0.059, 86.731, 42.542, -17.029, 23.762, -0.648, 0.794, -0.342, -3.113, 56.824, -35.156, 21.192, 25.870, 20.550
10058, 0.972, 0.231, 0.501, -3.052, 10.742, 34.851, 27.470, -0.440, -0.870, -0.047, 48.462, 17.822, -13.489, 23.759, -0.676, 0.761, -0.518, -8.057, 36.682, -21.851, 21.168, 25.870, 20.550
10088, 0.909, 0.263, 0.454, -5.066, 9.399, 28.320, 27.464, -0.409, -0.926, -0.106, 41.260, 19.897, -1.648, 23.744, -0.605, 0.727, -0.411, -43.579, 30.212, -5.737, 21.168, 25.910, 20.550
10120, 0.846, 0.174, 0.391, -9.949, 11.230, 19.226, 27.476, -0.335, -0.900, -0.090, 57.251, 49.988, -22.156, 23.759, -0.425, 0.797, -0.566, -59.387, 55.054, -1.587, 21.162, 25.910, 20.590
10150, 0.760, 0.122, 0.364, -11.597, 10.986, 20.386, 27.464, -0.242, -0.706, -0.050, 72.205, 80.200, -47.424, 23.756, -0.507, 0.487, -0.245, -36.865, 88.379, -3.967, 21.186, 25.910, 20.590
10180, 0.660, 0.020, 0.489, -15.442, 14.771, 18.250, 27.452, -0.194, -0.583, 0.103, 45.349, 45.227, -62.317, 23.756, -0.351, 0.537, -0.491, -17.334, 85.999, 8.423, 21.186, 26.550, 20.590
10212, 0.316, 0.022, 0.869, 1.526, 22.644, 2.136, 27.464, -0.049, -0.768, -0.702, 6.042, -2.319, -31.860, 23.759, -0.169, 0.413, -0.890, 44.922, 6.592, 61.096, 21.165, 26.550, 20.570
10242, 0.625, -0.014, 0.642, -13.062, -30.457, 15.137, 27.464, -0.076, -0.824, -0.179, 57.190, 19.958, 6.287, 23.756, -0.330, 0.705, -0.543, -12.939, 5.310, 28.564, 21.165, 26.550, 20.570
10274, 0.965, -0.008, 0.389, 4.639, -27.283, -16.602, 27.470, -0.220, -0.942, 0.141, 76.721, 40.161, 13.733, 23.780, -0.566, 0.775, -0.579, -31.067, 9.644, -25.146, 21.165, 26.870, 20.570
10304, 1.253, 0.274, 0.482, 19.287, -24.841, -20.935, 27.467, -0.696, -1.224, 0.395, 76.538, 39.307, 47.180, 23.729, -0.809, 1.062, -0.351, -15.930, 7.263, -20.874, 21.171, 26.870, 20.550
10334, 1.429, 0.465, 0.336, 4.822, -22.156, 11.719, 27.458, -0.784, -1.163, 0.407, 39.246, -0.977, 10.254, 23.732, -0.801, 0.974, -0.247, -36.560, 4.150, -14.099, 21.177, 26.870, 20.550
10366, 1.204, 0.215, 0.381, -21.118, -5.554, 7.507, 27.470, -0.425, -1.079, 0.240, 21.973, 16.113, -17.639, 23.741, -0.878, 0.795, -0.320, -14.648, 12.878, -37.354, 21.165, 27.110, 20.550
10396, 1.113, 0.081, 0.436, -30.457, -4.517, 0.305, 27.470, -0.347, -1.015, 0.278, 37.598, 27.649, -12.756, 23.753, -0.795, 0.737, -0.461, 23.193, -7.385, 5.066, 21.168, 27.110, 20.550
10426, 1.015, 0.082, 0.425, -25.574, -2.625, -2.747, 27.473, -0.328, -0.898, 0.252, 23.315, 26.245, -11.719, 23.741, -0.527, 0.773, -0.534, 31.006, -36.865, 45.959, 21.180, 27.110, 20.570
10458, 0.904, 0.119, 0.426, -12.573, -5.737, -8.545, 27.473, -0.334, -0.857, 0.166, 5.615, 21.179, -9.521, 23.723, -0.381, 0.792, -0.484, 1.770, -9.888, 21.973, 21.198, 27.410, 20.570
10488, 0.941, 0.232, 0.369, -5.066, -13.000, -10.681, 27.461, -0.423, -0.893, 0.196, 13.245, 25.024, -4.089, 23.723, -0.538, 0.789, -0.308, -24.170, -7.019, -16.907, 21.192, 27.410, 20.570
10520, 0.960, 0.242, 0.408, -7.385, -11.536, -5.981, 27.470, -0.459, -0.891, 0.166, 6.287, 9.644, -2.747, 23.741, -0.488, 0.820, -0.293, -0.183, -14.099, -2.136, 21.183, 27.410, 20.550
10550, 0.923, 0.301, 0.437, -8.484, -11.108, -4.700, 27.452, -0.502, -0.890, 0.099, 12.695, 9.949, -1.587, 23.705, -0.443, 0.881, -0.323, 22.766, -16.541, 12.817, 21.162, 27.410, 20.550
10580, 0.968, 0.319, 0.398, -4.028, -10.437, -1.404, 27.476, -0.545, -0.907, 0.174, 10.742, 7.141, -5.859, 23.753, -0.415, 0.924, -0.330, 1.404, -12.451, 4.456, 21.207, 27.590, 20.550
10612, 0.998, 0.308, 0.422, -1.831, -9.277, 6.958, 27.446, -0.524, -0.920, 0.152, 8.423, -0.549, -9.766, 23.738, -0.450, 0.886, -0.337, -13.184, 9.766, -14.038, 21.201, 27.590, 20.570
10642, 1.073, 0.247, 0.341, -5.493, -3.662, 8.850, 27.446, -0.457, -0.956, 0.254, 13.672, 2.625, -5.188, 23.741, -0.633, 0.844, -0.264, -6.409, 13.550, -34.973, 21.186, 27.590, 20.570
10672, 1.170, 0.186, 0.324, -8.118, 3.784, 5.249, 27.464, -0.431, -1.000, 0.356, 10.559, 8.240, -8.362, 23.747, -0.806, 0.842, -0.317, 10.193, 21.179, -20.752, 21.189, 27.690, 20.570
10704, 1.229, 0.076, 0.394, -7.690, 11.597, -2.502, 27.464, -0.337, -1.079, 0.366, 0.488, 9.766, -3.479, 23.732, -0.850, 0.872, -0.460, 30.151, 8.057, 18.555, 21.183, 27.690, 20.550
10734, 1.234, 0.102, 0.410, -8.972, 14.282, -10.742, 27.431, -0.344, -1.076, 0.328, -5.615, 16.541, 3.906, 23.741, -0.811, 0.894, -0.476, 11.780, 5.859, 25.574, 21.189, 27.690, 20.550
10764, 1.117, 0.153, 0.399, -12.451, 17.090, -19.958, 27.437, -0.381, -1.011, 0.246, -14.343, 27.527, 4.150, 23.714, -0.696, 0.828, -0.387, -2.930, -4.089, 33.447, 21.201, 27.550, 20.550
10796, 1.064, 0.258, 0.353, -19.836, 17.212, -25.452, 27.446, -0.475, -0.971, 0.204, -12.939, 39.246, -0.305, 23.723, -0.628, 0.856, -0.253, 9.644, -3.967, 39.124, 21.180, 27.550, 20.530
10826, 1.048, 0.297, 0.373, -28.198, 20.447, -29.846, 27.452, -0.509, -0.971, 0.171, -12.390, 46.448, -7.263, 23.744, -0.562, 0.853, -0.208, 21.118, -10.254, 35.339, 21.186, 27.550, 20.530
10859, 0.963, 0.296, 0.397, -35.400, 21.057, -26.428, 27.443, -0.467, -0.917, 0.114, -5.981, 50.171, -19.592, 23.747, -0.493, 0.833, -0.281, 43.762, -12.329, 34.119, 21.201, 27.470, 20.530
10889, 0.880, 0.260, 0.416, -39.001, 23.926, -25.818, 27.458, -0.405, -0.839, 0.078, -5.920, 51.208, -25.574, 23.738, -0.377, 0.801, -0.345, 40.466, -13.184, 41.992, 21.210, 27.470, 20.550
10919, 0.776, 0.229, 0.443, -37.964, 26.184, -26.367, 27.473, -0.365, -0.779, 0.038, -6.226, 47.485, -25.940, 23.741, -0.278, 0.755, -0.361, 31.311, -11.108, 36.560, 21.192, 27.470, 20.550
10951, 0.678, 0.251, 0.470, -34.851, 22.522, -22.766, 27.470, -0.367, -0.742, -0.038, -10.742, 41.565, -24.536, 23.738, -0.223, 0.708, -0.330, 23.804, -7.507, 25.879, 21.210, 27.470, 20.550
10981, 0.604, 0.222, 0.492, -33.691, 19.165, -17.761, 27.452, -0.306, -0.705, -0.061, -8.545, 34.607, -25.391, 23.738, -0.140, 0.679, -0.291, 22.156, -16.113, 25.879, 21.204, 27.470, 20.550
11011, 0.513, 0.158, 0.788, -25.330, 10.864, -11.169, 27.461, -0.182, -0.864, -0.316, -23.560, 13.916, -32.227, 23.741, -0.023, 0.671, -0.715, 55.237, -23.621, 33.386, 21.198, 27.470, 20.570
11043, 0.345, 0.061, 0.814, -23.926, 8.423, -1.648, 27.470, -0.006, -0.735, -0.465, 23.071, 4.333, -19.287, 23.735, 0.110, 0.674, -0.786, 46.204, -38.513, 44.128, 21.201, 27.470, 20.570
11073, 0.617, 0.004, 0.497, -17.090, -19.592, -3.052, 27.479, -0.054, -0.719, 0.018, 31.372, 20.264, 4.150, 23.711, -0.165, 0.636, -0.573, -16.357, 19.592, -27.222, 21.201, 27.470, 20.570
11103, 0.653, -0.075, 0.584, -3.052, -15.686, -11.292, 27.470, -0.019, -0.730, 0.024, 17.700, 7.629, 6.409, 23.717, -0.336, 0.577, -0.573, -22.339, 22.339, -70.923, 21.177, 27.470, 20.550
11135, 0.689, 0.021, 0.627, 9.705, -21.301, -20.203, 27.452, -0.086, -0.840, -0.096, 7.141, 3.418, 31.616, 23.726, -0.449, 0.687, -0.488, 21.240, -27.771, 9.521, 21.198, 27.470, 20.550
11165, 0.727, 0.263, 0.503, 16.052, -26.306, -16.602, 27.476, -0.391, -0.811, -0.029, 28.137, 1.221, 41.748, 23.732, -0.167, 0.827, -0.402, 9.766, -59.265, 46.936, 21.195, 27.470, 20.550
11197, 0.834, 0.456, 0.387, 18.616, -23.437, -14.954, 27.458, -0.613, -0.835, 0.095, 14.160, 7.324, 28.625, 23.723, -0.143, 0.879, -0.208, -32.776, 2.625, -13.977, 21.198, 27.470, 20.530
11227, 0.850, 0.485, 0.512, 11.230, -21.912, 1.709, 27.476, -0.588, -1.012, -0.066, 8.606, -11.475, 11.902, 23.717, -0.428, 0.846, -0.211, -13.184, 11.169, -62.012, 21.180, 27.470, 20.530
11257, 1.010, 0.339, 0.367, -7.019, -13.367, 11.230, 27.449, -0.457, -0.983, 0.197, 42.542, 0.427, -7.446, 23.708, -0.707, 0.812, -0.254, 7.324, 15.198, -51.880, 21.177, 27.370, 20.530
11289, 1.205, 0.001, 0.449, -17.700, -7.263, 9.216, 27.458, -0.186, -1.053, 0.398, 30.640, 0.244, -14.893, 23.735, -0.811, 0.789, -0.582, 27.832, 4.761, -29.724, 21.192, 27.370, 20.550
11319, 1.140, -0.124, 0.544, -1.831, -2.991, -3.113, 27.470, -0.092, -1.021, 0.346, 8.728, -1.587, 5.798, 23.747, -0.731, 0.824, -0.765, 33.569, -11.841, 16.663, 21.186, 27.370, 20.550
11349, 1.033, 0.100, 0.487, 22.522, -5.005, -15.564, 27.473, -0.321, -0.968, 0.246, -3.601, -4.456, 32.837, 23.699, -0.500, 0.908, -0.595, -1.404, -26.001, 31.433, 21.180, 27.230, 20.550
11381, 1.057, 0.428, 0.335, 29.175, -9.033, -15.747, 27.479, -0.658, -0.971, 0.225, -5.188, 0.427, 38.086, 23.720, -0.468, 1.004, -0.170, -51.636, 8.301, -8.057, 21.180, 27.230, 20.550
11411, 1.127, 0.666, 0.280, 20.264, -4.700, -9.583, 27.488, -0.892, -1.023, 0.220, -5.798, 5.615, 9.583, 23.708, -0.611, 0.997, 0.087, -41.138, 22.766, -26.367, 21.171, 27.230, 20.550
11443, 1.184, 0.770, 0.244, 0.183, 7.141, 4.883, 27.467, -0.976, -1.033, 0.262, 0.244, 6.714, -19.348, 23.708, -0.654, 1.065, 0.174, 11.658, 16.296, -13.245, 21.168, 27.290, 20.550
11472, 1.108, 0.634, 0.320, -17.212, 19.409, 22.766, 27.458, -0.844, -0.995, 0.228, -3.845, -6.104, -46.692, 23.714, -0.525, 0.999, -0.051, 57.190, 15.015, -7.874, 21.183, 27.290, 20.550
11501, 1.021, 0.433, 0.358, -22.949, 26.367, 36.743, 27.479, -0.577, -0.912, 0.197, -2.930, -13.367, -53.101, 23.714, -0.513, 0.938, -0.299, 69.702, 23.987, -10.254, 21.186, 27.290, 20.530
11532, 0.960, 0.214, 0.412, -16.968, 31.982, 36.072, 27.488, -0.360, -0.856, 0.217, -5.371, -14.160, -47.729, 23.684, -0.471, 0.843, -0.476, 34.546, 33.325, -17.334, 21.180, 27.290, 20.530
11561, 0.885, 0.122, 0.545, -3.601, 28.320, 31.250, 27.455, -0.242, -0.906, 0.103, -20.752, -20.813, -36.316, 23.669, -0.445, 0.823, -0.585, 24.963, 39.368, -17.395, 21.186, 27.170, 20.530
11590, 0.890, 0.163, 0.555, 5.676, 21.423, 26.794, 27.482, -0.238, -0.947, 0.050, -13.733, -20.935, -20.203, 23.696, -0.514, 0.825, -0.524, 12.573, 36.743, -14.648, 21.153, 27.170, 20.570
11622, 0.885, 0.181, 0.505, 8.362, 17.883, 18.372, 27.482, -0.271, -0.901, 0.090, -9.338, -16.907, -14.893, 23.702, -0.492, 0.780, -0.463, -7.690, 33.569, -16.846, 21.201, 27.170, 20.570
11651, 0.843, 0.198, 0.541, 8.850, 15.747, 14.282, 27.485, -0.268, -0.909, 0.023, -16.479, -16.846, -10.315, 23.699, -0.478, 0.759, -0.448, -1.099, 28.137, -4.578, 21.180, 27.310, 20.570
11680, 0.797, 0.208, 0.509, 7.019, 11.475, 11.902, 27.500, -0.253, -0.865, -0.008, -8.240, -12.573, -4.761, 23.696, -0.418, 0.727, -0.430, 3.784, 19.775, 5.676, 21.174, 27.310, 20.570
11711, 0.756, 0.192, 0.428, 4.822, 11.780, 8.057, 27.482, -0.259, -0.759, 0.066, -2.319, -6.958, -2.319, 23.693, -0.387, 0.654, -0.345, -8.301, 17.029, 1.770, 21.174, 27.310, 20.570
11740, 0.692, 0.110, 0.347, 0.610, 16.174, 6.470, 27.491, -0.180, -0.671, 0.125, -4.700, -5.371, -3.540, 23.669, -0.400, 0.510, -0.306, -17.456, 23.682, -6.348, 21.180, 27.310, 20.570
11772, 0.624, -0.052, 0.417, 4.272, 17.029, 3.601, 27.479, 0.018, -0.594, 0.096, -15.503, -13.000, -13.489, 23.702, -0.312, 0.518, -0.434, -13.733, 11.780, 20.264, 21.195, 27.310, 20.550
11801, 0.399, -0.197, 0.905, 17.090, 9.827, -4.944, 27.485, 0.185, -0.781, -0.320, -49.683, -35.400, 1.038, 23.693, -0.065, 0.530, -1.010, 19.775, -0.061, 72.754, 21.207, 27.310, 20.550
11830, 0.076, -0.103, 0.929, 34.180, 22.034, -5.554, 27.479, 0.256, -0.670, -0.657, 12.207, -50.293, 40.283, 23.702, 0.245, 0.485, -0.940, -21.118, -58.167, 79.163, 21.222, 27.230, 20.550
11861, 0.502, -0.089, 0.491, 42.725, -40.955, -1.160, 27.494, 0.064, -0.609, -0.021, 30.457, -19.348, 59.265, 23.699, -0.023, 0.573, -0.561, -84.167, 10.620, -21.545, 21.174, 27.230, 20.550
11890, 0.609, 0.039, 0.416, 59.937, -29.907, -15.259, 27.470, -0.206, -0.630, 0.048, 0.732, -28.625, 58.044, 23.711, -0.187, 0.505, -0.342, -76.904, 55.176, -67.749, 21.174, 27.230, 20.590
11919, 0.764, 0.354, 0.506, 69.885, -31.616, -7.446, 27.473, -0.550, -0.909, -0.021, 2.930, -44.495, 95.886, 23.696, -0.429, 0.807, -0.211, 4.944, 44.373, -27.893, 21.207, 27.230, 20.590
11951, 1.088, 0.520, 0.444, 46.082, -34.058, 11.108, 27.479, -0.655, -1.214, 0.111, 14.526, -36.621, 64.880, 23.687, -0.782, 1.026, -0.127, 21.729, 30.396, -31.982, 21.183, 27.310, 20.590
11980, 1.315, 0.461, 0.280, 16.663, -20.874, 8.118, 27.479, -0.619, -1.106, 0.360, 49.805, -0.305, 23.071, 23.699, -0.917, 0.963, -0.153, -44.189, -18.005, -42.053, 21.186, 27.310, 20.550
12009, 1.401, 0.271, 0.282, 2.991, -4.089, -1.953, 27.473, -0.552, -1.012, 0.497, 15.808, -2.869, 4.944, 23.696, -0.806, 0.932, -0.277, 7.385, -10.986, -7.446, 21.186, 27.310, 20.550
12040, 1.154, 0.266, 0.531, -0.793, 3.113, -3.357, 27.485, -0.531, -1.042, 0.280, -18.127, -11.230, 14.832, 23.711, -0.572, 1.009, -0.436, 65.674, -15.747, 35.278, 21.189, 26.710, 20.550
12069, 1.068, 0.362, 0.521, 3.662, 5.432, -4.700, 27.482, -0.659, -0.972, 0.214, -32.043, -24.231, 27.771, 23.696, -0.436, 1.021, -0.421, 33.691, -23.376, 5.676, 21.177, 26.710, 20.550
12101, 1.064, 0.328, 0.339, 9.216, 4.028, -2.930, 27.464, -0.787, -0.899, 0.520, -51.941, -51.514, 10.193, 23.714, -0.551, 0.889, -0.312, -7.202, -3.784, -32.104, 21.171, 26.710, 20.550
12130, 1.235, 0.371, 0.256, 7.080, 5.188, 17.700, 27.470, -0.608, -0.965, 0.378, -151.733, -149.475, -33.447, 23.690, -0.781, 0.785, -0.288, -10.681, 24.414, -20.081, 21.159, 26.990, 20.550
12159, 1.233, -0.039, 0.370, -7.507, 22.461, 27.161, 27.494, -0.378, -1.134, 0.503, -171.692, -45.654, -27.222, 23.684, -1.004, 0.678, -0.466, 24.231, 54.382, -26.917, 21.189, 26.990, 20.550
12190, 1.292, -0.154, 0.156, 3.723, 41.260, 20.020, 27.485, -0.164, -0.779, 0.410, -288.513, -183.167, -84.351, 23.690, -1.026, 0.750, -0.416, 10.986, 18.066, 12.878, 21.174, 26.990, 20.550
12219, 1.187, 0.008, 0.211, 37.842, 57.251, -24.902, 27.470, -0.124, -0.973, -0.017, -209.839, -134.338, -106.934, 23.717, -0.746, 0.887, -0.417, 18.860, 1.038, 53.284, 21.174, 26.990, 20.550
12249, 1.052, 0.515, 0.650, 54.932, 17.090, -46.082, 27.461, -0.312, -1.243, -0.614, -133.301, -45.349, -80.750, 23.714, -0.578, 1.069, -0.394, 26.917, 5.432, 45.959, 21.192, 26.310, 20.550
12280, 1.077, 0.732, 0.521, 10.193, 13.000, -23.499, 27.479, -0.573, -1.301, -0.425, -44.617, -7.935, -25.696, 23.693, -0.443, 1.120, -0.285, 6.470, -5.981, 36.743, 21.198, 26.310, 20.550
12309, 1.096, 0.538, 0.492, -18.616, 15.015, -2.075, 27.476, -0.502, -1.172, -0.219, -22.034, 41.748, -52.246, 23.702, -0.422, 1.012, -0.332, -6.287, 17.883, 6.958, 21.186, 26.310, 20.550
12340, 0.943, 0.341, 0.538, -22.339, 17.273, 7.690, 27.485, -0.275, -0.984, -0.272, -30.762, 20.325, -42.419, 23.705, -0.418, 0.918, -0.439, 19.775, 27.100, 16.113, 21.189, 26.230, 20.550
12369, 0.831, 0.292, 0.517, -6.409, 10.010, 8.057, 27.485, -0.221, -0.881, -0.309, -21.973, 11.780, -22.827, 23.705, -0.314, 0.867, -0.430, 14.465, 17.395, 22.705, 21.204, 26.230, 20.570
12399, 0.710, 0.293, 0.416, -3.418, 13.184, 8.423, 27.491, -0.269, -0.728, -0.206, -24.902, 4.395, -20.264, 23.714, -0.204, 0.724, -0.328, -14.526, 19.531, 11.536, 21.204, 26.230, 20.570
12430, 0.618, 0.255, 0.292, 7.996, 19.897, 9.399, 27.479, -0.271, -0.640, -0.119, -24.658, 7.019, -32.654, 23.708, -0.155, 0.616, -0.199, -35.645, 34.058, -2.075, 21.174, 26.650, 20.570
12459, 0.484, 0.253, 0.398, 10.376, 27.466, 21.484, 27.482, -0.213, -0.527, -0.329, -15.015, 14.099, -32.837, 23.720, -0.047, 0.583, -0.216, -44.006, 24.841, 8.545, 21.192, 26.650, 20.550
12488, 0.191, 0.216, 0.935, 16.846, 36.865, 25.208, 27.479, -0.156, -0.387, -0.929, 2.747, 23.682, -18.982, 23.687, 0.081, 0.566, -0.786, 10.254, 5.615, 29.602, 21.195, 26.650, 20.550
12519, 0.036, 0.105, 0.933, 30.823, 30.701, 31.433, 27.470, -0.084, -0.441, -0.853, 30.029, -11.963, -0.366, 23.702, 0.391, 0.493, -0.758, 0.244, -58.472, 47.424, 21.177, 26.470, 20.550
12549, 0.309, 0.018, 0.648, 22.156, -30.273, 40.100, 27.491, 0.096, -0.337, -0.561, 32.471, -12.451, -41.321, 23.711, 0.108, 0.548, -0.577, -31.921, 5.676, -45.776, 21.201, 26.470, 20.550
12578, 0.429, 0.014, 0.574, 21.851, -24.292, 21.301, 27.476, 0.137, -0.448, -0.481, 38.574, -13.306, -4.883, 23.717, -0.072, 0.494, -0.540, -23.499, 54.871, -93.384, 21.180, 26.470, 20.530
12609, 0.455, 0.144, 0.726, 28.870, -36.194, 5.066, 27.497, -0.026, -0.569, -0.571, 44.861, -57.495, 39.185, 23.717, -0.256, 0.595, -0.583, 32.471, 33.813, -62.683, 21.171, 26.470, 20.530
12638, 0.623, 0.192, 0.472, 23.987, -46.875, -3.601, 27.491, -0.143, -0.722, -0.277, 46.021, -53.406, 47.424, 23.708, -0.454, 0.785, -0.199, 20.691, 15.869, -18.494, 21.180, 26.430, 20.530
12669, 0.993, 0.345, 0.234, 19.836, -56.091, 1.831, 27.479, -0.278, -1.004, 0.057, 34.302, -56.458, 32.898, 23.699, -0.625, 0.955, -0.063, -45.410, -25.757, -48.096, 21.165, 26.430, 20.550
12699, 1.315, 0.520, 0.146, 14.282, -49.133, -2.808, 27.473, -0.393, -1.217, 0.153, 8.911, -67.078, 39.001, 23.729, -0.727, 0.971, -0.011, -54.077, -40.527, -45.044, 21.159, 26.430, 20.550
12728, 1.426, 0.439, 0.111, 10.437, -14.893, 6.226, 27.494, -0.323, -1.406, 0.113, 26.611, -48.340, 53.284, 23.708, -1.015, 0.886, -0.030, -6.409, 27.039, -57.190, 21.165, 26.530, 20.550
12772, 1.574, 0.019, 0.229, -6.226, 4.944, 1.221, 27.473, -0.090, -1.392, 0.177, 15.625, 5.554, 13.489, 23.702, -1.266, 0.935, -0.473, 38.757, 21.545, 7.324, 21.171, 26.530, 20.570
12804, 1.396, 0.143, 0.255, 21.790, 18.860, -19.104, 27.473, -0.280, -1.264, 0.213, -14.221, -27.161, 26.123, 23.717, -0.788, 1.102, -0.396, 27.893, -29.602, 84.534, 21.159, 26.530, 20.570
12836, 1.262, 0.507, 0.228, 38.696, 17.700, -19.165, 27.479, -0.587, -1.226, 0.025, -23.376, -43.579, 46.753, 23.720, -0.501, 1.116, -0.133, -29.663, 40.283, 44.678, 21.183, 26.310, 20.570
12870, 1.086, 0.739, 0.312, 19.653, 18.616, -10.925, 27.509, -0.682, -1.127, -0.192, -15.198, 2.197, 14.771, 23.711, -0.544, 1.000, 0.069, -37.048, 30.090, -22.400, 21.183, 26.310, 20.510
12902, 0.976, 0.525, 0.415, -10.132, 21.973, 6.409, 27.491, -0.480, -1.051, -0.236, 1.648, 32.410, -4.211, 23.726, -0.555, 0.871, -0.124, 32.043, 12.817, -3.540, 21.162, 26.310, 20.510
12936, 0.961, 0.266, 0.417, -18.555, 22.278, 14.587, 27.479, -0.300, -0.961, -0.171, 32.654, 50.232, 8.179, 23.714, -0.444, 0.913, -0.472, 72.693, 15.076, 38.330, 21.183, 26.310, 20.510
12968, 0.911, 0.236, 0.429, -1.160, 19.958, 10.315, 27.500, -0.387, -0.890, -0.030, 9.277, 34.851, -3.418, 23.720, -0.314, 0.927, -0.486, 5.066, 25.574, 13.245, 21.177, 26.310, 20.550
13000, 0.852, 0.329, 0.411, 11.658, 16.479, 12.573, 27.476, -0.338, -0.854, -0.186, 3.174, 7.263, 17.090, 23.723, -0.368, 0.796, -0.286, -35.889, 36.133, -29.175, 21.156, 26.310, 20.550
13034, 0.812, 0.280, 0.330, 6.226, 16.357, 15.015, 27.482, -0.219, -0.832, -0.230, 60.547, 44.861, 42.114, 23.702, -0.477, 0.670, -0.185, -21.729, 48.218, -27.954, 21.156, 26.650, 20.550
13066, 0.655, 0.186, 0.445, -3.723, 29.663, 5.737, 27.491, -0.238, -0.686, -0.236, 81.726, 76.233, -0.732, 23.726, -0.315, 0.601, -0.349, 10.437, 15.198, 19.653, 21.174, 26.650, 20.590
13098, 0.491, 0.149, 0.721, -2.686, 24.170, 15.259, 27.485, -0.217, -0.621, -0.413, 82.458, 43.884, 30.090, 23.726, -0.095, 0.669, -0.671, 34.973, 2.441, 68.176, 21.186, 26.650, 20.590
13132, 0.160, 0.057, 0.966, 12.573, 21.545, 16.846, 27.512, -0.229, -0.673, -0.691, 61.829, -0.244, 42.542, 23.732, 0.288, 0.594, -0.960, -9.216, -6.653, 65.430, 21.183, 26.710, 20.590
13164, 0.292, 0.094, 0.613, 18.799, -43.457, 23.865, 27.500, -0.039, -0.596, -0.439, 88.074, -4.944, -22.766, 23.705, 0.049, 0.535, -0.513, -81.177, -9.766, -64.575, 21.156, 26.710, 20.550
13196, 0.563, 0.127, 0.282, 22.644, -37.292, 4.883, 27.494, -0.172, -0.530, -0.101, 96.924, 41.870, -13.000, 23.711, -0.211, 0.473, -0.157, -70.740, 40.344, -91.980, 21.198, 26.710, 20.550
13230, 0.664, 0.290, 0.314, 23.987, -31.738, 6.287, 27.488, -0.509, -0.564, 0.170, 80.872, 31.738, 4.028, 23.714, -0.398, 0.655, -0.120, -12.756, 52.612, -50.537, 21.192, 26.470, 20.550
13262, 0.589, 0.351, 0.507, 9.033, -25.085, 23.010, 27.479, -0.430, -0.769, -0.160, 18.372, -26.794, 3.174, 23.735, -0.316, 0.681, -0.226, 28.381, -13.550, 13.855, 21.177, 26.470, 20.550
13296, 0.891, 0.230, 0.246, -8.789, -28.015, 28.931, 27.476, -0.280, -0.858, 0.104, 63.416, 14.221, -8.606, 23.744, -0.520, 0.785, -0.209, -14.099, 10.376, -32.471, 21.159, 26.470, 20.550
13328, 1.208, 0.008, 0.259, -13.672, -28.442, 12.878, 27.476, -0.105, -0.984, 0.383, 45.471, 16.113, -33.203, 23.732, -0.854, 0.776, -0.368, -28.992, 58.105, -95.093, 21.159, 26.650, 20.550
13360, 1.165, -0.026, 0.592, -5.859, -9.155, -15.869, 27.461, -0.177, -1.123, 0.154, 24.109, 23.987, 11.047, 23.726, -0.933, 0.933, -0.660, 32.288, -10.498, -21.729, 21.162, 26.650, 20.530
13394, 1.395, 0.175, 0.298, 15.503, -5.554, -20.203, 27.452, -0.615, -1.250, 0.627, 39.734, 36.743, 50.842, 23.756, -0.773, 1.211, -0.362, 10.193, -23.437, 62.744, 21.180, 26.650, 20.530
13426, 1.627, 0.490, 0.101, 29.968, -3.662, -16.296, 27.467, -0.837, -1.184, 0.668, 4.211, 8.972, 22.644, 23.735, -0.823, 1.257, -0.012, -66.101, 30.762, -13.550, 21.147, 26.670, 20.530
13458, 1.535, 0.709, 0.223, 20.996, 11.536, -10.803, 27.461, -1.078, -1.329, 0.452, -20.142, 1.099, 25.085, 23.726, -0.979, 1.186, 0.212, -21.545, 31.128, -26.794, 21.168, 26.670, 20.530
13492, 1.458, 0.609, 0.172, -18.372, 29.053, 8.789, 27.473, -0.866, -1.299, 0.399, 2.563, 15.381, -19.714, 23.756, -0.920, 1.030, 0.063, 38.879, 20.569, 21.240, 21.144, 26.670, 20.530
13524, 1.299, 0.300, 0.251, -35.950, 35.400, 14.587, 27.470, -0.529, -1.070, 0.408, 1.404, 18.616, -56.030, 23.738, -0.833, 0.967, -0.245, 60.974, 20.508, 12.329, 21.177, 26.610, 20.530
13556, 1.194, 0.178, 0.309, -33.203, 32.471, 10.193, 27.467, -0.427, -0.964, 0.393, -6.897, 21.973, -37.170, 23.732, -0.688, 0.975, -0.338, 49.133, 12.512, 25.757, 21.153, 26.610, 20.550
13590, 1.098, 0.246, 0.384, -29.419, 28.076, 2.319, 27.464, -0.381, -1.028, 0.185, -21.301, 24.109, -25.269, 23.759, -0.668, 0.875, -0.300, 21.667, 12.756, 3.174, 21.165, 26.610, 20.550
13622, 1.005, 0.154, 0.429, -35.156, 24.292, -0.916, 27.464, -0.296, -0.995, 0.148, -10.071, 27.039, -30.640, 23.747, -0.638, 0.771, -0.385, 35.461, 3.540, 10.620, 21.159, 26.710, 20.550
13657, 0.942, 0.092, 0.435, -31.616, 22.156, -10.193, 27.464, -0.225, -0.862, 0.158, -6.897, 32.104, -30.945, 23.747, -0.526, 0.812, -0.477, 52.063, -1.892, 44.800, 21.174, 26.710, 20.530
13689, 0.846, 0.133, 0.442, -24.292, 21.057, -20.081, 27.464, -0.258, -0.833, 0.073, -21.545, 32.166, -14.832, 23.741, -0.369, 0.769, -0.412, 16.357, -8.789, 37.476, 21.174, 26.710, 20.530
13721, 0.696, 0.188, 0.375, -22.949, 22.705, -18.311, 27.452, -0.268, -0.725, 0.032, -11.353, 30.029, -15.198, 23.756, -0.271, 0.608, -0.254, -11.719, 0.671, 19.836, 21.168, 26.670, 20.530
13755, 0.540, 0.102, 0.452, -22.766, 27.283, -22.339, 27.473, -0.132, -0.572, -0.060, -22.705, 33.691, -38.452, 23.720, -0.132, 0.571, -0.326, -5.737, -18.494, 35.156, 21.156, 26.670, 20.570
13787, 0.223, 0.077, 0.860, -7.324, 22.827, -17.700, 27.470, -0.033, -0.646, -0.501, -37.170, 8.118, -22.217, 23.744, 0.103, 0.587, -0.786, 30.151, -46.143, 100.464, 21.156, 26.670, 20.570
13819, 0.072, 0.095, 0.827, -1.160, 10.864, -8.240, 27.479, 0.105, -0.583, -0.683, 13.245, -0.183, 18.982, 23.741, 0.320, 0.525, -0.625, -26.123, -85.022, 141.296, 21.153, 26.770, 20.570
13854, 0.335, -0.009, 0.563, 0.854, -30.273, 0.183, 27.437, 0.075, -0.586, -0.161, 49.744, 7.141, 18.860, 23.708, 0.220, 0.431, -0.552, -47.791, -14.038, -55.969, 21.156, 26.770, 20.530
13886, 0.425, -0.142, 0.557, 12.207, -23.193, -8.972, 27.452, 0.153, -0.510, -0.121, 29.724, -5.249, 24.963, 23.714, -0.136, 0.473, -0.584, -3.967, 62.744, -89.722, 21.171, 26.770, 20.530
13920, 0.429, 0.012, 0.569, 25.757, -31.677, -18.127, 27.464, 0.002, -0.635, -0.233, 24.963, -7.996, 51.208, 23.711, -0.259, 0.580, -0.468, 16.968, 31.250, 3.174, 21.144, 26.650, 20.530
13952, 0.598, 0.197, 0.354, 25.085, -41.748, -26.306, 27.455, -0.219, -0.674, -0.016, 43.884, 7.751, 53.955, 23.702, -0.333, 0.727, -0.146, -26.001, -18.433, -22.583, 21.147, 26.650, 20.530
13984, 0.842, 0.393, 0.316, 19.470, -43.945, -28.442, 27.461, -0.503, -0.782, 0.105, 35.278, 22.583, 45.044, 23.714, -0.337, 0.811, -0.042, -43.091, -34.729, -35.095, 21.132, 26.650, 20.530
14019, 0.984, 0.639, 0.337, 12.085, -42.053, -13.977, 27.464, -0.861, -0.984, 0.112, 22.888, 14.160, 47.058, 23.717, -0.357, 1.025, 0.062, 12.817, -18.494, 6.104, 21.141, 26.790, 20.530
14051, 1.290, 0.669, 0.148, -3.235, -33.813, 4.150, 27.464, -0.992, -1.151, 0.484, 16.541, 22.461, 25.696, 23.717, -0.706, 1.220, 0.146, 9.094, 7.996, -50.659, 21.132, 26.790, 20.530
14083, 1.658, 0.594, 0.187, -17.395, -22.766, 19.348, 27.425, -0.879, -1.254, 0.541, 37.170, 9.705, -3.235, 23.693, -1.042, 1.224, -0.054, 24.963, 22.888, -66.528, 21.123, 26.850, 20.530
14117, 1.677, 0.437, 0.341, -15.503, 6.409, 13.794, 27.467, -0.866, -1.320, 0.610, 8.606, 4.028, -13.611, 23.687, -0.998, 1.346, -0.257, 60.425, 1.221, 11.780, 21.141, 26.850, 20.530
14149, 1.519, 0.594, 0.245, -5.737, 20.508, 19.897, 27.437, -0.939, -1.187, 0.476, -14.832, -11.780, -20.447, 23.699, -0.642, 1.348, -0.161, 24.048, 5.676, 19.226, 21.141, 26.850, 20.550
14182, 1.323, 0.645, 0.245, -10.681, 27.771, 28.198, 27.452, -0.871, -1.109, 0.313, -13.123, -5.310, -42.542, 23.696, -0.720, 1.121, 0.083, 4.089, 40.161, -41.199, 21.153, 26.930, 20.550
14216, 1.188, 0.465, 0.360, -20.569, 34.058, 27.954, 27.440, -0.642, -1.062, 0.207, -13.977, -4.578, -54.688, 23.726, -0.687, 1.024, -0.154, 71.350, 17.822, -5.554, 21.138, 26.930, 20.550
14249, 1.071, 0.333, 0.503, -25.574, 31.616, 29.541, 27.443, -0.456, -1.049, 0.086, -9.216, -2.686, -47.974, 23.708, -0.539, 1.061, -0.486, 77.637, 17.822, 10.986, 21.126, 26.930, 20.550
14284, 0.993, 0.318, 0.447, -18.982, 25.391, 20.691, 27.446, -0.444, -0.910, 0.126, -9.521, 1.343, -35.950, 23.705, -0.423, 0.926, -0.364, 8.606, 18.250, -4.944, 21.099, 26.870, 20.550
14317, 0.830, 0.328, 0.404, -20.447, 20.813, 11.902, 27.446, -0.389, -0.816, 0.004, -16.113, 8.484, -29.480, 23.708, -0.443, 0.737, -0.215, 21.484, 16.479, -10.681, 21.132, 26.870, 20.550
14350, 0.740, 0.230, 0.349, -23.437, 18.066, 7.568, 27.449, -0.312, -0.728, 0.102, -5.188, 11.230, -32.166, 23.711, -0.406, 0.594, -0.111, 34.119, 2.014, 3.296, 21.126, 26.870, 20.510
14385, 0.545, 0.132, 0.523, -27.100, 16.052, 5.859, 27.446, -0.122, -0.642, -0.154, -28.137, -2.136, -33.875, 23.729, -0.271, 0.480, -0.344, 67.749, -58.289, 7.019, 21.153, 26.850, 20.510
14418, 0.211, 0.051, 0.898, -30.701, 23.071, -7.996, 27.461, 0.137, -0.728, -0.704, -28.015, -2.441, -14.832, 23.705, -0.146, 0.469, -0.820, 120.178, -162.354, 1.465, 21.162, 26.850, 20.510
14451, 0.158, 0.071, 0.691, -26.611, -10.010, -6.836, 27.440, 0.093, -0.565, -0.571, 80.811, 11.108, 22.034, 23.693, -0.062, 0.300, -0.920, 55.969, -240.906, 49.133, 21.141, 26.850, 20.510
14486, 0.520, 0.079, 0.226, -27.039, -30.884, -20.691, 27.458, -0.180, -0.377, 0.127, 69.702, 48.035, 21.912, 23.684, 0.087, 0.655, -0.264, -60.730, -182.556, 61.584, 21.150, 24.270, 20.510
14519, 0.584, 0.065, 0.189, -4.028, -25.146, -20.020, 27.479, -0.272, -0.442, 0.296, 21.240, 24.353, 22.400, 23.696, -0.119, 0.484, -0.154, -54.382, 3.052, -3.906, 21.141, 24.270, 20.510
14554, 0.527, 0.210, 0.382, 9.277, -20.691, -5.005, 27.446, -0.260, -0.663, -0.066, 2.625, -16.174, 29.175, 23.684, -0.328, 0.526, -0.137, 5.859, -3.906, -29.663, 21.135, 24.270, 20.510
14587, 0.609, 0.255, 0.408, -0.854, -23.132, -7.385, 27.470, -0.291, -0.708, -0.060, 42.908, 2.136, 21.790, 23.690, -0.382, 0.582, -0.178, 25.024, -32.593, -21.851, 21.135, 24.710, 20.510
14620, 0.748, 0.191, 0.446, -21.667, -31.128, -6.897, 27.479, -0.204, -0.877, -0.029, 53.345, 24.048, 5.676, 23.693, -0.574, 0.657, -0.228, 25.696, -46.936, -18.372, 21.144, 24.710, 20.530
14655, 0.891, 0.082, 0.457, -30.273, -40.710, -17.029, 27.455, -0.175, -0.885, 0.112, 57.312, 34.485, -7.996, 23.693, -0.708, 0.702, -0.280, 37.720, -56.396, -17.273, 21.147, 24.710, 20.530
14688, 1.110, 0.193, 0.260, -31.799, -51.086, -26.794, 27.464, -0.420, -0.882, 0.417, 50.659, 58.472, 6.042, 23.660, -0.868, 0.951, -0.007, 17.822, -70.740, 14.893, 21.156, 24.690, 20.530
14721, 1.540, 0.391, 0.223, -15.991, -58.716, -33.691, 27.464, -0.907, -1.166, 0.749, 22.827, 53.406, 29.236, 23.699, -0.871, 1.303, 0.116, 30.823, -114.929, -11.169, 21.111, 24.690, 20.550
14756, 1.740, 0.996, 0.281, -22.583, -39.856, -21.423, 27.461, -1.329, -1.507, 0.463, 12.695, 49.194, 23.621, 23.690, -0.758, 1.554, 0.241, 50.049, -71.716, -27.710, 21.144, 24.690, 20.550
14789, 1.799, 0.724, 0.116, -66.284, -8.911, 11.780, 27.443, -1.013, -1.510, 0.576, 44.006, 33.508, -37.964, 23.714, -1.164, 1.299, 0.236, -1.709, -22.400, -1.831, 21.153, 24.630, 20.550
14822, 1.719, 0.123, 0.149, -77.209, -0.366, 18.066, 27.458, -0.484, -1.097, 0.907, 49.683, 36.682, -74.707, 23.717, -1.383, 0.858, 0.128, 45.288, 21.179, 28.137, 21.153, 24.630, 20.510
14857, 1.470, 0.064, 0.146, -49.500, 21.545, -11.353, 27.458, -0.447, -0.974, 0.788, -11.780, 45.654, -21.912, 23.702, -0.954, 1.003, -0.046, 101.440, -19.104, 43.701, 21.150, 24.630, 20.510
14890, 1.246, 0.254, 0.275, -38.025, 37.170, -23.010, 27.446, -0.497, -1.050, 0.404, -48.096, 37.964, -20.447, 23.705, -0.671, 0.974, -0.173, 57.800, 7.874, 45.410, 21.141, 24.530, 20.510
14925, 1.063, 0.215, 0.377, -40.100, 37.659, -20.203, 27.461, -0.362, -0.981, 0.236, -34.607, 39.001, -20.508, 23.720, -0.582, 0.912, -0.266, 19.348, 12.817, 8.362, 21.141, 24.530, 20.550
14958, 0.973, 0.179, 0.387, -40.344, 38.879, -23.010, 27.470, -0.325, -0.898, 0.222, -18.433, 49.377, -19.043, 23.729, -0.577, 0.807, -0.276, -4.456, 37.903, 27.710, 21.150, 24.530, 20.550
14991, 0.824, 0.087, 0.441, -36.682, 41.809, -23.193, 27.437, -0.211, -0.837, 0.136, -36.194, 37.964, -20.691, 23.699, -0.562, 0.526, -0.212, 18.433, 88.867, 39.551, 21.138, 24.570, 20.550
15026, 0.668, -0.001, 0.477, -26.306, 35.339, -22.522, 27.452, -0.070, -0.725, 0.011, -29.053, 31.555, -16.052, 23.708, -0.505, 0.556, -0.454, 41.016, 21.729, 56.580, 21.135, 24.570, 20.490
15059, 0.528, 0.061, 0.579, -18.738, 35.645, -31.738, 27.449, -0.095, -0.706, -0.145, -28.625, 32.959, -0.244, 23.702, -0.253, 0.554, -0.519, 10.193, 30.151, 79.956, 21.126, 24.570, 20.490
15092, 0.375, 0.134, 0.656, -21.545, 25.818, -25.024, 27.437, -0.109, -0.719, -0.309, -20.386, 26.062, 3.296, 23.726, -0.020, 0.545, -0.447, -8.850, -3.296, 72.266, 21.132, 24.530, 20.490
15127, 0.362, 0.103, 0.566, -21.545, 7.385, -18.250, 27.458, -0.038, -0.612, -0.290, 6.897, 28.442, 3.418, 23.726, -0.044, 0.602, -0.467, 23.315, -22.461, 32.410, 21.111, 24.530, 20.490
15160, 0.499, 0.058, 0.451, -17.029, 1.160, -22.034, 27.455, -0.117, -0.601, -0.039, 19.592, 30.396, 5.371, 23.705, -0.244, 0.528, -0.355, 0.488, -12.268, 22.400, 21.120, 24.530, 20.490
15195, 0.431, 0.133, 0.532, -9.705, -3.784, -20.508, 27.431, -0.161, -0.603, -0.139, -3.357, 14.893, 2.136, 23.690, -0.134, 0.518, -0.296, 32.043, -25.513, 21.606, 21.126, 24.930, 20.490
15228, 0.490, 0.170, 0.442, -14.465, -15.259, -21.423, 27.425, -0.142, -0.611, -0.150, 11.658, 23.071, 10.193, 23.696, -0.143, 0.667, -0.322, 25.818, -49.255, 7.935, 21.120, 24.930, 20.490
15261, 0.542, 0.155, 0.549, -6.714, -20.386, -24.048, 27.455, -0.251, -0.706, -0.057, 8.301, 11.414, 17.395, 23.675, -0.079, 0.716, -0.369, 31.006, -72.632, -27.039, 21.147, 25.190, 20.490
15296, 0.708, 0.423, 0.542, -8.850, -43.091, -6.653, 27.461, -0.432, -0.804, -0.125, 21.912, 6.165, 48.706, 23.657, -0.318, 0.892, -0.258, 27.954, -71.594, -20.691, 21.147, 25.190, 20.490
15329, 0.970, 0.349, 0.229, -23.010, -42.358, -3.967, 27.467, -0.915, -0.742, 1.075, -39.551, -22.461, 24.353, 23.654, -0.525, 1.005, -0.024, -2.930, -47.119, -1.587, 21.123, 25.190, 20.510
15362, 1.365, 0.427, 0.312, -15.381, -39.368, -9.521, 27.458, -0.366, -1.172, -0.080, -251.099, -187.866, 6.592, 23.669, -0.737, 1.160, 0.064, 28.870, -58.289, -15.198, 21.150, 25.470, 20.510
15397, 1.498, 0.428, 0.354, -19.226, -13.428, -7.019, 27.488, -0.640, -1.383, -0.044, -290.344, -229.004, 29.968, 23.657, -0.663, 1.313, -0.149, 47.302, -41.748, -18.311, 21.129, 25.470, 20.510
15430, 1.498, 0.562, 0.374, 7.935, -6.042, -3.967, 27.464, -0.693, -1.485, -0.221, -142.700, -145.447, -2.014, 23.660, -0.607, 1.343, -0.105, 19.409, 4.822, -17.578, 21.159, 25.470, 20.510
15465, 1.415, 0.737, 0.235, -2.014, 15.076, 23.193, 27.455, -0.807, -1.242, 0.063, -46.875, -12.512, -47.668, 23.645, -0.700, 1.215, 0.095, 7.751, 15.564, -25.879, 21.129, 25.410, 20.510
15498, 1.396, 0.497, 0.267, -20.081, 32.349, 26.855, 27.479, -0.660, -1.267, 0.181, -72.205, 22.095, -97.900, 23.639, -0.722, 1.138, 0.008, 40.283, 46.509, 2.441, 21.144, 25.410, 20.490
15531, 1.265, 0.395, 0.426, -18.066, 44.006, 28.931, 27.458, -0.470, -1.143, -0.054, -77.515, -15.076, -64.575, 23.633, -0.633, 1.162, -0.277, 45.959, 52.246, 7.324, 21.150, 25.410, 20.490
15566, 1.154, 0.246, 0.553, -11.780, 46.082, 23.682, 27.473, -0.361, -1.140, -0.294, -68.787, -10.986, -35.400, 23.642, -0.625, 1.034, -0.426, 6.775, 67.078, 29.236, 21.141, 25.370, 20.490
15599, 1.022, 0.186, 0.571, -1.770, 47.058, 16.357, 27.464, -0.292, -0.997, -0.316, -54.504, 23.376, -46.143, 23.648, -0.498, 0.988, -0.408, -0.305, 67.810, 29.419, 21.147, 25.370, 20.530
15632, 0.920, 0.154, 0.498, 2.319, 50.354, 7.080, 27.470, -0.171, -0.883, -0.274, -54.871, 33.875, -53.406, 23.630, -0.463, 0.781, -0.357, -9.277, 66.650, 29.114, 21.120, 25.370, 20.530
15667, 0.761, 0.040, 0.509, 7.874, 54.932, 12.817, 27.482, -0.055, -0.726, -0.368, -45.410, 32.166, -34.058, 23.660, -0.291, 0.648, -0.514, -15.991, 76.782, 42.236, 21.168, 25.350, 20.530
15700, 0.455, -0.154, 0.881, 16.663, 64.209, 19.104, 27.458, 0.026, -0.569, -0.754, -10.986, 18.005, -0.671, 23.642, -0.147, 0.636, -1.003, -8.423, 114.990, 28.687, 21.135, 25.350, 20.510
15733, 0.053, -0.257, 1.023, 53.162, 59.937, 8.423, 27.488, 0.061, -0.257, -0.922, 15.076, 22.217, -1.892, 23.663, 0.037, 0.512, -0.825, -49.438, 93.933, 5.432, 21.135, 25.350, 20.510
15768, 0.068, 0.130, 0.670, 57.922, -2.075, -12.512, 27.470, 0.069, -0.223, -0.668, 31.189, 2.747, 9.949, 23.639, 0.027, 0.406, -0.351, -49.561, 7.874, -15.137, 21.123, 25.490, 20.510
15801, 0.313, 0.203, 0.478, 7.019, -23.437, -27.954, 27.482, -0.190, -0.450, -0.456, 26.611, 8.240, 27.344, 23.663, -0.029, 0.430, -0.219, 9.033, -50.354, -32.166, 21.147, 25.490, 20.530
15836, 0.356, 0.211, 0.489, -3.479, -22.949, -16.785, 27.494, -0.175, -0.484, -0.378, 20.447, 6.653, 14.709, 23.666, -0.085, 0.488, -0.410, 3.540, -27.100, -28.809, 21.150, 25.490, 20.530
15869, 0.385, 0.008, 0.549, -9.094, -23.743, -8.240, 27.476, 0.006, -0.465, -0.426, 27.466, 3.906, 13.062, 23.642, -0.196, 0.456, -0.460, 13.855, 6.653, -20.386, 21.147, 25.530, 20.530
15902, 0.487, -0.019, 0.546, 4.150, -26.978, -16.235, 27.482, -0.042, -0.575, -0.307, 40.527, -6.287, 26.428, 23.672, -0.229, 0.560, -0.469, 15.137, -32.288, -19.043, 21.153, 25.530, 20.510
15937, 0.666, 0.061, 0.468, 17.761, -25.940, -11.780, 27.470, -0.124, -0.713, -0.178, 32.043, -33.875, 35.095, 23.642, -0.335, 0.681, -0.400, -8.118, -24.231, -6.226, 21.162, 25.530, 20.510
15970, 0.816, 0.165, 0.430, 32.532, -21.729, -6.836, 27.470, -0.213, -0.826, -0.096, 16.235, -61.157, 35.767, 23.678, -0.467, 0.707, -0.177, -19.714, -16.418, 0.183, 21.126, 25.430, 20.510
16003, 0.994, 0.294, 0.319, 39.124, -16.846, -2.441, 27.470, -0.378, -1.027, 0.026, -14.221, -80.444, 17.578, 23.651, -0.560, 0.921, 0.035, 5.554, -58.960, 21.790, 21.138, 25.430, 20.510
16039, 1.301, 0.620, 0.236, 34.729, -10.803, 3.845, 27.497, -0.605, -1.289, 0.088, -36.194, -78.186, -2.502, 23.684, -0.556, 1.257, 0.164, 36.865, 6.714, 2.808, 21.159, 25.430, 20.510
16072, 1.510, 0.861, 0.250, 9.949, 5.127, 4.822, 27.467, -0.691, -1.499, -0.085, -32.227, -43.091, 0.549, 23.660, -0.681, 1.271, 0.221, 43.091, -10.437, -22.827, 21.147, 25.470, 20.510
16107, 1.497, 0.526, 0.341, -42.603, 15.137, 21.729, 27.479, -0.445, -1.490, -0.066, -13.794, 36.072, -29.846, 23.675, -1.018, 1.204, 0.019, 51.392, 10.925, 0.977, 21.147, 25.470, 20.430
16140, 1.527, 0.279, 0.375, -51.758, 13.977, 6.226, 27.494, -0.259, -1.406, 0.027, -32.837, 55.298, -59.265, 23.684, -0.897, 1.261, -0.219, 51.270, 0.183, 13.916, 21.132, 25.470, 20.430
16173, 1.349, 0.302, 0.522, -39.551, 22.034, -11.353, 27.476, -0.311, -1.292, -0.224, -47.119, 33.813, -37.659, 23.681, -0.742, 1.257, -0.335, 32.166, -5.066, 19.226, 21.111, 25.470, 20.430
16209, 1.232, 0.408, 0.540, -31.555, 17.578, -26.611, 27.476, -0.333, -1.245, -0.301, -30.701, 44.800, -22.339, 23.693, -0.600, 1.184, -0.284, 13.855, -3.601, 31.982, 21.129, 25.470, 20.450
16242, 1.093, 0.427, 0.521, -31.494, 20.142, -30.090, 27.452, -0.351, -1.117, -0.287, -25.146, 68.298, -17.395, 23.675, -0.394, 1.083, -0.270, 9.216, 2.258, 35.583, 21.138, 25.430, 20.450
16275, 0.864, 0.505, 0.531, -32.654, 21.179, -26.428, 27.491, -0.382, -0.932, -0.373, -24.597, 65.247, 8.057, 23.684, -0.228, 0.958, -0.225, 3.845, 5.676, 27.466, 21.129, 25.430, 20.450
16310, 0.622, 0.344, 0.504, -42.175, 24.292, -10.620, 27.464, -0.285, -0.721, -0.434, -14.648, 80.566, -12.573, 23.693, -0.098, 0.682, -0.327, 12.207, 11.780, 23.682, 21.135, 25.430, 20.490
16343, 0.404, 0.102, 0.644, -40.283, 27.954, 0.916, 27.446, -0.113, -0.466, -0.518, 3.784, 97.839, -23.315, 23.723, 0.020, 0.620, -0.655, 12.024, 50.903, 12.329, 21.120, 25.610, 20.490
16376, 0.142, -0.006, 0.867, -18.677, 25.330, 3.052, 27.500, 0.021, -0.313, -0.880, 12.512, 66.833, -5.127, 23.702, 0.108, 0.524, -0.793, -7.507, 62.500, -19.287, 21.138, 25.610, 20.490
16412, 0.021, -0.198, 1.031, -16.235, 11.353, 5.066, 27.470, 0.297, -0.131, -1.047, 47.241, 71.716, 3.479, 23.720, -0.036, 0.326, -1.000, -16.174, 57.312, -21.240, 21.120, 25.610, 20.490
16443, 0.088, -0.383, 0.892, -9.766, -25.269, -8.240, 27.497, 0.481, -0.176, -0.661, 69.946, 62.500, 13.245, 23.702, -0.160, 0.332, -0.860, -12.024, -31.860, -15.686, 21.132, 25.970, 20.490
16477, 0.289, -0.245, 0.596, 13.306, -44.312, -40.405, 27.464, 0.334, -0.248, -0.373, 49.866, 13.794, 56.396, 23.708, -0.082, 0.380, -0.591, 6.104, -78.186, -38.757, 21.120, 25.970, 20.510
16509, 0.300, -0.093, 0.522, 29.053, -36.926, -55.664, 27.491, 0.136, -0.364, -0.303, 40.161, -43.701, 102.661, 23.696, -0.096, 0.326, -0.531, 18.982, -61.157, -40.833, 21.117, 25.970, 20.510
16541, 0.355, 0.101, 0.494, 47.546, -39.001, -49.316, 27.458, 0.048, -0.437, -0.352, 59.265, -114.136, 158.447, 23.702, -0.053, 0.528, -0.373, -25.818, -43.518, 0.854, 21.111, 25.590, 20.510
16575, 0.386, 0.259, 0.538, 55.176, -48.645, -39.856, 27.470, -0.171, -0.490, -0.514, 140.686, -149.048, 253.235, 23.720, -0.040, 0.611, -0.391, -23.621, -43.579, -4.578, 21.126, 25.590, 20.450
16607, 0.494, 0.333, 0.454, 51.941, -56.152, -32.043, 27.467, -0.741, -0.627, -0.231, 204.224, 7.935, 129.700, 23.744, -0.146, 0.723, -0.340, -35.339, -24.109, -20.752, 21.093, 25.590, 20.450
16639, 0.658, 0.543, 0.227, 46.875, -65.979, -25.269, 27.476, -0.955, -0.834, 0.005, 150.146, 98.755, -17.090, 23.705, -0.340, 0.903, 0.139, -77.209, 10.864, 22.766, 21.135, 24.930, 20.450
16673, 1.157, 1.286, -0.090, 22.278, -93.323, 3.540, 27.491, -1.021, -1.225, 0.101, 136.292, 231.934, -15.991, 23.702, -0.511, 1.294, 0.955, -91.980, -12.024, 41.199, 21.117, 24.930, 20.450
16705, 1.732, 1.214, -0.132, -37.415, -64.880, 25.269, 27.485, -1.566, -1.139, 0.445, 127.075, 102.966, -26.123, 23.738, -0.464, 1.289, 0.345, -4.761, 49.194, -29.663, 21.102, 24.930, 20.450
16739, 1.516, 1.126, 0.313, -19.897, 0.793, 56.152, 27.488, -1.640, -1.434, 0.574, 42.969, 119.507, -24.353, 23.714, -0.915, 1.512, 0.523, 57.007, 121.399, -92.224, 21.087, 24.830, 20.450
16771, 1.616, 0.687, 0.161, -72.021, 2.014, 94.727, 27.479, -0.852, -1.338, 0.203, -8.911, -23.193, -87.158, 23.738, -1.029, 1.307, -0.037, 85.144, 40.100, -68.665, 21.105, 24.830, 20.490
16803, 1.521, 0.457, 0.282, -65.857, 22.217, 78.674, 27.488, -0.591, -1.255, 0.251, 63.049, 36.072, -89.966, 23.732, -0.847, 1.272, -0.329, 95.398, 36.621, -16.724, 21.102, 24.830, 20.490
16837, 1.435, 0.217, 0.443, -32.043, 27.588, 53.040, 27.473, -0.480, -1.253, 0.467, 46.021, 21.179, -68.237, 23.741, -0.823, 1.289, -0.342, 16.174, 55.786, -24.780, 21.084, 24.810, 20.490
16869, 1.442, 0.273, 0.432, -7.751, 26.367, 47.363, 27.479, -0.586, -1.251, 0.365, 19.226, -2.747, -38.147, 23.711, -0.790, 1.244, -0.378, 23.743, 53.589, -8.179, 21.099, 24.810, 20.430
16901, 1.292, 0.286, 0.547, 3.357, 38.147, 38.330, 27.488, -0.412, -1.240, 0.089, -25.757, -24.719, -46.326, 23.732, -0.672, 1.104, -0.422, 30.151, 57.007, -2.136, 21.093, 24.810, 20.430
16935, 1.093, 0.189, 0.547, -0.183, 46.875, 28.259, 27.491, -0.225, -1.108, 0.004, -13.000, -15.198, -44.006, 23.687, -0.629, 0.932, -0.512, 23.682, 61.462, 8.118, 21.108, 25.250, 20.430
16967, 0.859, -0.022, 0.487, 6.653, 54.871, 18.311, 27.479, -0.046, -0.822, 0.097, 7.446, -13.916, -42.908, 23.723, -0.451, 0.702, -0.520, 1.953, 47.791, 18.860, 21.102, 25.250, 20.450
17001, 0.545, -0.120, 0.663, 35.645, 55.725, -2.136, 27.482, 0.137, -0.704, -0.177, -9.155, -36.743, -37.476, 23.720, -0.093, 0.562, -0.686, -3.540, 25.391, 38.269, 21.108, 25.250, 20.450
17033, 0.038, -0.031, 1.035, 50.659, 55.725, -21.362, 27.488, 0.179, -0.681, -0.725, -10.132, -56.763, -16.785, 23.723, 0.262, 0.558, -1.017, -11.414, 17.761, -15.503, 21.105, 25.430, 20.450
17065, -0.071, -0.050, 0.678, 46.204, 27.100, 2.991, 27.491, 0.244, -0.378, -0.545, 68.359, -53.467, 9.155, 23.696, 0.123, 0.357, -0.627, -87.219, -16.785, -11.353, 21.111, 25.430, 20.450
17099, 0.269, 0.119, 0.411, 36.560, -32.471, -2.075, 27.473, 0.088, -0.292, -0.331, 37.231, -13.306, 25.940, 23.708, -0.059, 0.364, -0.116, -50.964, 8.301, 8.606, 21.102, 25.430, 20.450
17131, 0.322, 0.140, 0.330, 14.282, -27.344, -26.001, 27.467, -0.041, -0.433, -0.118, -21.729, 25.818, 22.888, 23.672, -0.122, 0.276, -0.118, -22.705, 11.047, -15.930, 21.093, 25.290, 20.450
17163, 0.309, 0.130, 0.438, 11.841, -16.663, -26.184, 27.494, -0.124, -0.518, -0.113, 7.446, 6.042, 25.085, 23.681, -0.018, 0.493, -0.344, 2.075, -21.851, -11.658, 21.105, 25.290, 20.450
17197, 0.401, 0.115, 0.477, 18.127, -25.208, -9.583, 27.491, -0.105, -0.561, -0.129, 10.986, -17.029, 28.198, 23.654, -0.087, 0.560, -0.354, 1.648, -33.325, -20.569, 21.090, 25.290, 20.450
17230, 0.610, 0.128, 0.446, 18.921, -29.663, -1.892, 27.470, -0.118, -0.698, -0.011, 12.451, -17.700, 44.800, 23.657, -0.243, 0.641, -0.355, -18.982, 0.427, -9.155, 21.087, 25.230, 20.450
17262, 0.811, 0.091, 0.380, 26.001, -31.616, 2.197, 27.461, -0.161, -0.837, 0.201, 20.081, -21.973, 46.753, 23.690, -0.669, 0.720, -0.212, -7.568, 0.793, -15.564, 21.135, 25.230, 20.450
17296, 1.202, 0.170, 0.136, 28.198, -31.494, 7.324, 27.473, -0.371, -0.820, 0.500, 16.541, -4.761, 68.054, 23.669, -0.887, 0.997, 0.090, -6.653, -47.546, 13.733, 21.090, 25.230, 20.450
17328, 1.601, 0.463, 0.067, 50.781, -38.635, -19.104, 27.467, -0.927, -1.212, 1.035, -35.767, 23.193, 121.704, 23.654, -0.891, 1.355, 0.228, -5.066, -59.387, -31.189, 21.072, 25.230, 20.450
17362, 1.878, 1.113, 0.287, 57.678, -18.860, -15.015, 27.470, -1.548, -1.702, 0.348, -45.593, -34.607, 97.656, 23.636, -0.801, 1.575, 0.208, 43.945, -94.849, -25.085, 21.105, 25.230, 20.430
17395, 1.550, 0.957, 0.295, -20.935, 28.625, 26.123, 27.488, -1.097, -1.578, 0.164, -20.813, -49.438, -12.207, 23.648, -0.918, 1.258, 0.068, 50.964, 24.841, -9.094, 21.099, 25.230, 20.430
17427, 1.500, 0.276, 0.265, -41.931, 19.592, 41.321, 27.488, -0.397, -1.225, 0.264, 40.100, 11.841, -51.208, 23.645, -1.000, 1.083, -0.176, 50.293, 23.804, -4.028, 21.093, 25.110, 20.430
17461, 1.332, 0.213, 0.303, -37.476, 29.846, 16.663, 27.467, -0.491, -0.937, 0.566, 15.320, 46.997, -43.640, 23.660, -0.837, 1.026, -0.276, 28.442, 8.911, 5.310, 21.093, 25.110, 20.430
17493, 1.141, 0.257, 0.445, -23.193, 28.748, 0.366, 27.458, -0.475, -1.069, 0.227, -38.574, 16.846, -20.569, 23.654, -0.673, 1.009, -0.245, 18.372, 27.222, 21.484, 21.087, 25.110, 20.430
17525, 1.042, 0.395, 0.446, -24.658, 23.987, -4.089, 27.485, -0.499, -1.037, 0.027, -23.926, 23.926, -21.667, 23.666, -0.552, 0.943, -0.205, 19.592, 15.564, 21.301, 21.102, 25.190, 20.430
17560, 0.910, 0.350, 0.513, -36.865, 24.231, -6.836, 27.488, -0.437, -0.982, -0.030, -9.766, 37.109, -35.706, 23.642, -0.423, 0.870, -0.308, 34.302, 9.155, 12.024, 21.105, 25.190, 20.430
17592, 0.781, 0.197, 0.494, -39.734, 24.719, -2.808, 27.494, -0.262, -0.807, 0.014, 1.831, 33.691, -48.767, 23.672, -0.342, 0.731, -0.435, 29.419, 15.625, 14.709, 21.090, 25.190, 20.430
17626, 0.575, 0.017, 0.620, -19.287, 25.391, -6.165, 27.479, -0.085, -0.690, -0.082, -10.498, 11.963, -39.978, 23.675, -0.135, 0.694, -0.664, 14.465, 22.278, 0.244, 21.096, 25.230, 20.430
17658, 0.355, 0.106, 0.778, 0.366, 27.405, -7.019, 27.485, -0.112, -0.684, -0.376, -13.916, -10.864, -14.099, 23.648, 0.017, 0.593, -0.611, -10.010, 29.053, -6.348, 21.099, 25.230, 20.430
17690, 0.341, 0.115, 0.627, -1.648, -2.075, 9.460, 27.482, -0.022, -0.674, -0.374, 4.211, -12.756, -0.916, 23.639, -0.145, 0.554, -0.492, -12.024, 21.912, 0.427, 21.096, 25.230, 20.430
17725, 0.521, -0.078, 0.394, 4.272, -14.221, 11.169, 27.497, 0.036, -0.573, 0.061, 44.067, -7.874, 3.601, 23.630, -0.418, 0.365, -0.392, -15.564, 26.367, 5.920, 21.105, 25.490, 20.430
17757, 0.609, -0.176, 0.344, 18.982, -5.432, -1.892, 27.476, 0.104, -0.510, 0.187, 14.893, -12.268, 6.470, 23.630, -0.411, 0.379, -0.359, -6.897, 5.981, 8.362, 21.093, 25.490, 20.450
17789, 0.526, -0.077, 0.405, 25.818, -0.671, -19.104, 27.473, 0.048, -0.519, -0.008, -12.024, -8.972, 26.855, 23.621, -0.330, 0.451, -0.396, -5.066, -1.892, -1.404, 21.111, 25.490, 20.450
17823, 0.502, 0.078, 0.385, 28.748, -0.183, -25.330, 27.464, -0.140, -0.590, -0.001, -5.554, -5.615, 35.461, 23.615, -0.180, 0.542, -0.326, -21.301, -1.343, 1.343, 21.135, 25.410, 20.450
17856, 0.447, 0.140, 0.554, 37.109, -4.028, -25.146, 27.500, -0.171, -0.686, -0.210, -8.728, -15.930, 37.964, 23.609, -0.120, 0.580, -0.440, -15.320, -10.681, -30.212, 21.105, 25.410, 20.430
17889, 0.450, 0.216, 0.541, 37.354, -18.066, -14.343, 27.476, -0.217, -0.722, -0.221, 22.400, -17.151, 43.396, 23.588, -0.223, 0.610, -0.385, -28.870, -20.935, -28.137, 21.099, 25.410, 20.430
17924, 0.664, 0.241, 0.333, 31.799, -34.790, -6.226, 27.473, -0.301, -0.671, 0.024, 38.574, -11.353, 42.053, 23.615, -0.416, 0.618, -0.169, -48.035, -9.583, -2.197, 21.102, 25.550, 20.430
17957, 0.826, 0.421, 0.165, 26.184, -40.710, -8.667, 27.482, -0.558, -0.740, 0.198, 35.278, 10.559, 41.260, 23.603, -0.531, 0.769, 0.209, -36.926, -27.527, -2.808, 21.090, 25.550, 20.450
17992, 1.359, 0.650, 0.064, 10.925, -54.321, -6.531, 27.497, -0.921, -1.098, 0.479, 19.409, 22.278, 31.189, 23.621, -0.734, 1.167, 0.302, -20.691, -46.204, -23.865, 21.075, 25.550, 20.450
18025, 1.528, 0.850, 0.328, 5.554, -32.776, 8.484, 27.470, -1.198, -1.307, 0.441, 14.893, -4.272, -0.549, 23.606, -0.627, 1.422, 0.134, 25.513, -26.184, -50.293, 21.102, 25.230, 20.450
18058, 1.607, 0.880, 0.293, -6.348, -13.977, 36.194, 27.455, -1.171, -1.530, 0.311, -3.723, -21.729, -15.991, 23.606, -0.850, 1.479, 0.099, 32.593, -15.991, -70.984, 21.075, 25.230, 20.450
18093, 1.618, 0.601, 0.281, -33.020, 6.226, 61.890, 27.470, -0.809, -1.320, 0.491, 47.180, -18.982, -53.040, 23.597, -1.058, 1.270, -0.076, 12.939, 15.930, -52.612, 21.075, 25.230, 20.450
18126, 1.577, 0.281, 0.368, -20.752, 17.334, 55.298, 27.464, -0.621, -1.279, 0.580, 17.639, -18.372, -51.453, 23.609, -1.069, 1.183, -0.289, 16.602, 76.965, -31.250, 21.075, 24.950, 20.450
18159, 1.559, 0.262, 0.352, 0.305, 27.466, 49.744, 27.467, -0.602, -1.255, 0.593, -15.564, -31.677, -45.715, 23.600, -1.034, 1.191, -0.266, -2.502, 81.482, 12.573, 21.084, 24.950, 20.410
18194, 1.428, 0.177, 0.419, 11.902, 35.645, 45.837, 27.485, -0.405, -1.190, 0.433, -22.766, -36.621, -41.138, 23.609, -0.941, 1.019, -0.364, 0.244, 115.784, 24.048, 21.078, 24.950, 20.410
18227, 1.206, 0.067, 0.404, 26.855, 47.668, 32.471, 27.467, -0.253, -1.002, 0.366, -37.476, -39.307, -30.212, 23.609, -0.822, 0.797, -0.299, -20.264, 137.878, 16.541, 21.090, 25.070, 20.410
18262, 0.947, 0.096, 0.399, 38.330, 60.059, 16.296, 27.479, -0.218, -0.810, 0.192, -56.824, -43.030, -17.456, 23.606, -0.577, 0.740, -0.320, -18.188, 86.609, -1.099, 21.078, 25.070, 20.410
18295, 0.590, 0.131, 0.617, 41.138, 61.279, 4.028, 27.509, -0.115, -0.722, -0.171, -76.965, -49.072, -14.343, 23.603, -0.266, 0.641, -0.433, 13.428, 58.167, 67.749, 21.084, 25.070, 20.410
18328, 0.215, 0.173, 0.915, 43.945, 55.054, 2.075, 27.500, -0.041, -0.848, -0.697, -57.495, -54.565, -7.507, 23.606, 0.057, 0.650, -0.893, 23.682, 37.537, 86.426, 21.087, 25.350, 20.410
18363, 0.155, 0.105, 0.641, 41.077, 10.559, 19.653, 27.491, 0.031, -0.504, -0.504, 33.386, -46.265, 11.536, 23.573, 0.122, 0.499, -0.475, -78.064, 6.409, 22.583, 21.069, 25.350, 20.430
18396, 0.403, 0.197, 0.313, 50.049, -19.775, 16.296, 27.473, -0.234, -0.399, -0.103, 7.324, -21.301, 31.189, 23.588, 0.018, 0.498, -0.175, -81.604, 60.974, -4.211, 21.084, 26.370, 20.430
18429, 0.461, 0.244, 0.250, 47.485, -15.076, 16.174, 27.485, -0.269, -0.501, 0.035, -0.854, -34.790, 13.733, 23.573, -0.136, 0.435, -0.043, -74.951, 91.064, -31.494, 21.075, 26.370, 20.430
18464, 0.459, 0.227, 0.347, 35.645, -6.653, 12.878, 27.458, -0.203, -0.548, -0.139, 4.395, -35.339, 7.080, 23.546, -0.236, 0.481, -0.090, -41.931, 72.815, -46.082, 21.072, 26.370, 20.390
18496, 0.477, 0.185, 0.450, 23.926, -11.719, 11.597, 27.485, -0.137, -0.618, -0.178, 18.311, -23.621, 24.536, 23.534, -0.255, 0.528, -0.221, -5.859, 23.376, -17.090, 21.063, 26.590, 20.390
18528, 0.519, 0.154, 0.465, 10.986, -25.269, 9.888, 27.464, -0.114, -0.627, -0.176, 26.489, -19.714, 17.029, 23.543, -0.212, 0.641, -0.313, 19.104, -15.442, 9.827, 21.084, 26.590, 20.390
18571, 0.664, 0.086, 0.387, 5.615, -30.945, 0.671, 27.449, -0.176, -0.669, 0.105, 26.611, -9.216, 40.222, 23.546, -0.340, 0.658, -0.292, -12.390, -15.564, -42.725, 21.054, 26.590, 20.410
18603, 0.912, 0.011, 0.182, 0.183, -37.720, -2.869, 27.473, -0.417, -0.779, 0.709, -6.042, -13.855, 14.160, 23.564, -0.703, 0.624, -0.168, -19.714, 30.823, -60.181, 21.072, 26.770, 20.410
18637, 1.533, -0.062, -0.080, 20.447, -34.058, -17.883, 27.455, -0.430, -0.792, 1.124, -196.228, -197.510, -16.785, 23.552, -1.354, 1.212, 0.036, 6.531, 80.444, -72.205, 21.042, 26.770, 20.430
18669, 1.652, 0.375, 0.385, 56.885, -15.381, -41.626, 27.461, -0.858, -1.176, 0.014, -339.233, -307.312, 49.133, 23.552, -1.120, 1.444, -0.167, 33.142, -96.680, 46.021, 21.060, 26.770, 20.430
18701, 1.791, 0.966, 0.341, 50.354, -16.724, -32.227, 27.452, -0.702, -2.050, -0.489, -167.358, -189.270, 0.183, 23.561, -0.903, 1.354, -0.040, 13.916, -72.327, 71.472, 21.060, 26.650, 20.430
18736, 1.581, 0.571, 0.105, -29.053, 4.883, 1.953, 27.485, -0.539, -1.456, 0.206, -25.696, 28.625, -85.815, 23.552, -0.940, 1.157, 0.074, -21.606, 16.113, -16.479, 21.027, 26.650, 20.410
18768, 1.488, 0.306, 0.194, -33.386, 23.193, -7.507, 27.452, -0.337, -1.323, 0.279, -48.035, 26.245, -105.713, 23.570, -0.897, 1.117, -0.083, 40.710, -8.301, 19.531, 21.036, 26.650, 20.410
18800, 1.365, 0.318, 0.297, -12.756, 26.489, -9.766, 27.482, -0.234, -1.323, -0.012, -54.871, -32.959, -26.367, 23.558, -0.726, 1.200, -0.205, 70.984, -4.150, 47.607, 21.042, 26.430, 20.410
18834, 1.313, 0.382, 0.355, -12.451, 29.236, -10.071, 27.452, -0.275, -1.305, -0.156, -33.813, -16.785, -13.000, 23.570, -0.623, 1.139, -0.253, 26.367, -1.587, 21.851, 21.051, 26.430, 20.410
18866, 1.172, 0.412, 0.371, -21.362, 35.034, -8.667, 27.467, -0.404, -1.172, -0.095, -38.147, 14.160, -18.677, 23.591, -0.535, 1.013, -0.187, 34.363, 8.789, 37.720, 21.051, 26.430, 20.410
18901, 0.993, 0.334, 0.362, -23.193, 38.696, -3.540, 27.461, -0.278, -0.979, -0.159, -37.231, 42.664, -41.077, 23.570, -0.452, 0.840, -0.236, 36.194, 23.254, 29.602, 21.033, 26.550, 20.410
18933, 0.801, 0.158, 0.333, -18.616, 43.457, 3.052, 27.467, -0.084, -0.793, -0.191, -31.494, 66.895, -28.015, 23.591, -0.313, 0.678, -0.263, 24.170, 11.963, 18.738, 21.048, 26.550, 20.390
18965, 0.479, 0.128, 0.589, -16.968, 55.664, 3.723, 27.470, -0.071, -0.508, -0.545, -27.161, 94.604, -4.639, 23.591, -0.118, 0.633, -0.536, 26.306, -11.414, 47.424, 21.069, 26.550, 20.390
18999, -0.014, 0.129, 0.871, 5.981, 70.984, -15.198, 27.458, -0.144, -0.357, -0.818, -13.977, 65.857, -2.686, 23.570, 0.238, 0.515, -0.825, -2.319, -41.870, 92.224, 21.042, 26.710, 20.390
19031, -0.063, 0.042, 0.812, 5.005, 9.399, 14.343, 27.455, 0.053, -0.258, -0.736, 30.212, 31.799, -6.897, 23.576, 0.375, 0.398, -0.664, -80.017, -99.548, 38.208, 21.054, 26.710, 20.370
19064, 0.258, -0.060, 0.463, 3.601, -36.377, 15.381, 27.470, 0.166, -0.282, -0.331, 40.955, 31.494, -24.048, 23.588, 0.128, 0.278, -0.475, -25.024, 9.827, -83.740, 21.060, 26.710, 20.370
19098, 0.469, -0.145, 0.358, 3.540, -28.137, 1.343, 27.470, 0.302, -0.346, -0.195, 27.405, 20.508, -6.104, 23.585, -0.222, 0.387, -0.400, -23.071, 105.774, -133.667, 21.027, 26.590, 20.370
19130, 0.331, -0.093, 0.547, 0.916, -18.066, -21.423, 27.467, 0.164, -0.379, -0.376, 19.043, -2.747, 33.691, 23.603, -0.302, 0.407, -0.479, -24.292, 103.394, -75.378, 21.045, 26.590, 20.390
19162, 0.379, 0.056, 0.531, 11.353, -26.611, -24.170, 27.455, 0.022, -0.488, -0.418, 28.748, -16.113, 43.030, 23.597, -0.350, 0.520, -0.310, 28.137, 0.000, 39.368, 21.054, 26.590, 20.390
19196, 0.484, 0.094, 0.498, 16.968, -34.729, -23.071, 27.461, -0.050, -0.585, -0.282, 32.532, -11.597, 28.442, 23.585, -0.192, 0.591, -0.424, 44.617, -54.626, 103.455, 21.039, 26.650, 20.390
19229, 0.624, 0.167, 0.304, 27.954, -41.321, -20.386, 27.443, -0.166, -0.695, -0.015, 33.630, -43.579, 23.437, 23.585, -0.056, 0.734, -0.269, -19.592, -40.833, 23.376, 21.039, 26.650, 20.370
19263, 1.201, 0.259, 0.042, 39.673, -54.077, -1.221, 27.458, -0.257, -1.244, 0.450, 9.888, -130.981, 47.424, 23.600, -0.628, 1.072, 0.371, -56.274, 14.771, -76.050, 21.021, 26.650, 20.370
19295, 1.827, 0.860, -0.157, 49.744, -77.881, 20.752, 27.428, -0.702, -1.816, 0.343, -21.484, -169.434, 41.870, 23.618, -0.986, 1.229, 0.192, -13.733, -21.545, -2.808, 21.024, 26.770, 20.370
19328, 1.922, 0.922, 0.156, 29.419, 16.602, 11.047, 27.452, -0.618, -1.873, 0.085, -8.850, -92.957, 51.270, 23.606, -0.886, 1.632, 0.222, 73.914, -20.020, 30.518, 21.045, 26.770, 20.390
19363, 1.777, 0.750, 0.191, -16.357, 29.785, 39.612, 27.443, -0.727, -1.772, 0.179, -31.982, -19.958, -16.296, 23.621, -0.792, 1.411, -0.030, 28.137, 28.381, -29.968, 21.012, 26.770, 20.390
19396, 1.425, 0.448, 0.233, -15.930, 46.204, 52.124, 27.443, -0.343, -1.383, 0.051, -48.584, 11.108, -75.256, 23.600, -0.754, 1.167, -0.116, 38.513, 57.007, -47.913, 21.039, 25.250, 20.390
19429, 1.265, 0.184, 0.357, -0.366, 43.945, 47.241, 27.446, -0.167, -1.238, -0.049, -44.983, -5.249, -54.749, 23.606, -0.739, 1.098, -0.410, 74.219, 52.002, -14.465, 21.063, 25.250, 20.390
19464, 1.252, 0.145, 0.373, 16.479, 46.814, 38.574, 27.455, -0.100, -1.203, -0.118, -43.335, -16.174, -51.758, 23.618, -0.675, 1.042, -0.470, 18.372, 66.284, -17.578, 21.060, 25.250, 20.390
19497, 1.194, 0.128, 0.416, 25.208, 52.917, 30.273, 27.443, -0.049, -1.113, -0.154, -42.053, -17.456, -39.673, 23.603, -0.691, 0.959, -0.435, 4.700, 78.674, -13.611, 21.036, 26.030, 20.390
19532, 1.006, 0.175, 0.443, 37.170, 52.795, 16.724, 27.449, -0.114, -0.925, -0.238, -40.894, -26.672, -9.216, 23.609, -0.557, 0.900, -0.383, 12.573, 65.552, 14.465, 21.045, 26.030, 20.390
19565, 0.766, 0.348, 0.441, 37.781, 48.767, 3.662, 27.476, -0.278, -0.768, -0.393, -39.185, -18.555, -2.441, 23.591, -0.224, 0.816, -0.291, -4.883, 41.077, 43.335, 21.036, 26.030, 20.390
19598, 0.449, 0.457, 0.683, 21.484, 45.837, 4.211, 27.452, -0.388, -0.655, -0.759, -24.597, 20.691, 1.343, 23.597, -0.016, 0.725, -0.424, -12.939, 35.828, 43.579, 21.030, 26.290, 20.390
19633, 0.123, 0.236, 0.875, 6.897, 35.767, 7.324, 27.446, -0.249, -0.400, -0.844, 12.939, 47.852, -13.977, 23.612, 0.178, 0.571, -0.706, -36.560, 5.981, 12.146, 21.033, 26.290, 20.390
19666, 0.158, 0.054, 0.594, 16.174, -7.935, 14.587, 27.446, -0.023, -0.303, -0.484, 34.241, 20.874, -27.527, 23.603, 0.176, 0.470, -0.531, -52.734, -27.222, -24.658, 21.033, 26.290, 20.390
19699, 0.342, 0.129, 0.357, 18.555, -26.184, 6.165, 27.455, -0.033, -0.345, -0.266, 25.146, -8.301, -6.775, 23.594, -0.049, 0.413, -0.187, -39.673, 5.005, -49.133, 21.012, 26.050, 20.390
19734, 0.464, 0.150, 0.294, 12.024, -20.386, -0.366, 27.437, -0.075, -0.469, -0.199, 20.752, -10.376, 2.319, 23.597, -0.175, 0.445, -0.194, -8.484, 47.791, -49.622, 21.033, 26.050, 20.350
19767, 0.425, 0.164, 0.414, 10.681, -14.648, -1.282, 27.446, -0.122, -0.493, -0.309, 23.071, -12.695, 6.897, 23.606, -0.191, 0.497, -0.188, 23.071, 10.803, -20.691, 21.009, 26.050, 20.350
19802, 0.458, 0.262, 0.527, 9.399, -18.677, 1.709, 27.440, -0.198, -0.604, -0.441, 30.334, -16.174, 10.315, 23.621, -0.140, 0.605, -0.316, 42.297, -36.255, 27.344, 21.033, 26.050, 20.350
19835, 0.541, 0.284, 0.533, 6.714, -27.649, 7.568, 27.431, -0.186, -0.705, -0.432, 41.199, -15.381, 3.906, 23.621, -0.049, 0.698, -0.432, 10.254, -44.067, -56.946, 21.015, 26.050, 20.390
19868, 0.735, 0.119, 0.371, -4.211, -32.349, 11.353, 27.410, -0.035, -0.795, -0.087, 42.297, -3.235, -14.709, 23.591, -0.589, 0.692, -0.262, -16.174, -6.897, -51.880, 21.006, 25.970, 20.390
19903, 1.259, -0.123, 0.072, 5.127, -30.334, 7.568, 27.449, 0.143, -1.092, 0.387, 25.940, -42.297, -16.846, 23.624, -1.108, 0.776, -0.069, -12.512, -31.006, -0.671, 21.000, 25.970, 20.370
19936, 1.626, 0.187, 0.047, 47.241, -4.883, -17.273, 27.461, -0.026, -1.429, 0.407, 8.545, -90.027, 40.161, 23.606, -0.856, 1.313, -0.073, 1.526, -102.722, -2.869, 21.015, 25.970, 20.370
19969, 1.583, 0.768, 0.505, 48.828, -0.977, -23.560, 27.437, -0.602, -1.720, -0.202, -33.447, -146.606, 61.523, 23.603, -0.853, 1.450, 0.001, 10.498, -19.653, -17.334, 21.015, 24.650, 20.370
20004, 1.668, 0.667, 0.272, -19.043, 6.897, 0.793, 27.416, -0.376, -1.714, -0.113, -10.803, 11.963, -8.484, 23.606, -1.083, 1.090, 0.040, 1.465, 2.930, 13.428, 21.036, 24.650, 20.370
20037, 1.481, 0.119, 0.287, -39.063, 13.916, 0.061, 27.410, 0.036, -1.334, 0.115, -7.568, 65.369, -21.423, 23.612, -1.002, 1.018, -0.101, 36.499, 4.822, 21.973, 21.027, 24.650, 20.370
20070, 1.319, 0.167, 0.385, -19.348, 12.878, -13.428, 27.443, -0.085, -1.298, -0.059, -11.414, 9.094, 15.808, 23.600, -0.860, 1.067, -0.269, 50.354, -10.925, 3.723, 21.030, 23.810, 20.370
20105, 1.240, 0.345, 0.409, -14.221, 11.292, -18.311, 27.428, -0.249, -1.267, -0.148, -11.658, 18.494, 17.395, 23.588, -0.706, 1.060, -0.238, 23.376, -10.681, 18.738, 21.054, 23.810, 20.390
20138, 1.131, 0.333, 0.429, -16.052, 9.888, -12.634, 27.425, -0.265, -1.153, -0.160, -16.602, 32.532, 9.583, 23.603, -0.583, 0.975, -0.225, 10.803, -3.479, 26.733, 21.051, 23.810, 20.390
20173, 1.002, 0.361, 0.371, -17.090, 12.268, -9.949, 27.443, -0.262, -1.019, -0.156, -15.991, 34.546, 8.850, 23.567, -0.513, 0.863, -0.133, 16.968, 3.235, 21.545, 21.033, 23.930, 20.390
20206, 0.853, 0.271, 0.342, -26.611, 17.090, -5.066, 27.425, -0.195, -0.825, -0.188, -16.968, 63.354, -0.916, 23.582, -0.372, 0.725, -0.160, 23.804, 6.287, 19.043, 21.048, 23.930, 20.350
20239, 0.562, 0.210, 0.481, -22.278, 26.733, -12.878, 27.431, -0.187, -0.633, -0.387, -0.061, 89.417, -2.441, 23.588, -0.135, 0.639, -0.455, 50.354, 17.517, 24.353, 21.018, 23.930, 20.350
20274, 0.202, 0.259, 0.829, -6.592, 32.898, -16.785, 27.428, -0.245, -0.461, -0.767, -1.526, 60.242, 9.216, 23.594, 0.036, 0.610, -0.732, 5.859, 1.648, 26.367, 21.048, 24.270, 20.350
20307, 0.030, 0.112, 0.843, -6.226, 7.812, 3.296, 27.449, -0.163, -0.359, -0.751, 27.649, 31.616, -13.184, 23.585, 0.308, 0.444, -0.758, -46.143, -25.635, -38.635, 21.051, 24.270, 20.350
20340, 0.325, -0.039, 0.424, -1.831, -34.241, 19.470, 27.425, 0.080, -0.357, -0.271, 57.190, 27.100, -48.889, 23.573, -0.228, 0.269, -0.384, -46.936, 25.879, -55.054, 21.015, 24.270, 20.350
20375, 0.536, -0.163, 0.272, 12.756, -28.992, 9.888, 27.428, 0.263, -0.386, -0.088, 32.166, 3.784, -15.686, 23.597, -0.602, 0.283, -0.101, 4.089, 29.114, -12.390, 21.042, 24.650, 20.350
20408, 0.401, -0.065, 0.430, 20.203, -17.761, -14.404, 27.407, 0.061, -0.452, -0.279, 23.315, -26.489, 32.593, 23.594, -0.209, 0.491, -0.419, 1.282, -76.904, -12.939, 21.045, 24.650, 20.370
20443, 0.489, 0.164, 0.438, 28.137, -23.743, -16.113, 27.416, -0.099, -0.597, -0.331, 30.334, -33.142, 27.710, 23.573, -0.213, 0.502, -0.318, -7.874, -34.790, -3.662, 21.021, 24.650, 20.370
20476, 0.606, 0.233, 0.448, 23.193, -22.034, -12.573, 27.422, -0.161, -0.735, -0.299, 39.429, -12.634, 15.442, 23.603, -0.345, 0.648, -0.273, -1.221, -15.503, -4.517, 21.042, 24.290, 20.370
20509, 0.750, 0.293, 0.340, 21.179, -29.663, -5.737, 27.419, -0.192, -0.822, -0.074, 42.847, -25.452, 14.526, 23.594, -0.443, 0.771, -0.137, -9.583, -37.537, -10.681, 21.048, 24.290, 20.350
20544, 1.345, 0.285, 0.079, 19.775, -46.387, 8.789, 27.416, -0.194, -1.352, 0.387, 22.095, -83.740, 16.235, 23.600, -0.808, 1.197, 0.231, -43.518, -67.322, 26.001, 21.024, 24.290, 20.350
20577, 1.841, 0.520, 0.075, 25.696, -22.827, 2.136, 27.413, -0.334, -1.727, 0.304, -1.160, -102.844, 22.827, 23.606, -1.017, 1.326, 0.179, -8.423, -24.292, -24.414, 21.009, 23.930, 20.350
20610, 1.991, 0.529, 0.286, 26.428, 5.188, 9.949, 27.416, -0.417, -1.928, 0.326, -21.118, -83.801, 7.446, 23.597, -1.103, 1.682, 0.074, 4.333, 4.517, -49.194, 21.012, 23.930, 20.350
20645, 1.918, 0.771, 0.174, 30.273, 19.897, 21.057, 27.413, -0.581, -1.841, 0.269, -25.879, -55.237, -4.578, 23.603, -0.916, 1.516, 0.125, -50.415, 57.312, 15.991, 21.024, 23.930, 20.350
20678, 1.543, 0.689, 0.249, 13.062, 37.964, 29.175, 27.413, -0.503, -1.578, 0.049, -42.786, -13.916, -25.208, 23.600, -0.743, 1.286, 0.126, 3.540, 160.217, 49.194, 21.000, 23.690, 20.350
20711, 1.388, 0.518, 0.349, -3.601, 38.940, 35.828, 27.425, -0.356, -1.393, -0.047, -47.485, 4.150, -34.668, 23.573, -0.854, 1.076, -0.016, 32.043, 190.552, 4.395, 20.991, 23.690, 20.370
20746, 1.237, 0.255, 0.334, -4.517, 43.518, 28.992, 27.395, -0.126, -1.200, -0.077, -44.250, 21.973, -30.823, 23.606, -0.933, 0.970, -0.123, 55.237, 102.783, -4.395, 21.024, 23.690, 20.370
20779, 1.006, 0.241, 0.335, 2.686, 55.298, 16.846, 27.383, -0.156, -0.963, -0.094, -46.021, 17.212, -17.700, 23.594, -0.521, 0.875, -0.240, 33.508, 45.105, 28.564, 21.003, 24.530, 20.370
20814, 0.758, 0.285, 0.367, 7.263, 53.528, 11.658, 27.392, -0.243, -0.791, -0.208, -45.654, 4.211, -3.479, 23.600, -0.288, 0.794, -0.274, 42.114, 59.021, 66.833, 21.018, 24.530, 20.350
20847, 0.513, 0.361, 0.506, 13.855, 46.509, 15.442, 27.425, -0.309, -0.627, -0.479, -32.837, 17.456, -9.705, 23.585, 0.001, 0.761, -0.322, -12.634, 43.579, 50.537, 21.033, 25.810, 20.350
20880, 0.211, 0.377, 0.753, 9.094, 36.377, 14.526, 27.407, -0.291, -0.442, -0.808, -8.423, 32.776, -18.677, 23.591, 0.098, 0.649, -0.557, -49.011, 36.499, 20.752, 21.033, 25.810, 20.350
20915, 0.133, 0.084, 0.625, -1.831, -0.671, 16.113, 27.410, -0.122, -0.342, -0.477, 21.118, 37.842, -34.180, 23.600, 0.104, 0.487, -0.464, -41.199, 9.277, -8.728, 21.006, 25.810, 20.350
20949, 0.397, 0.109, 0.306, 14.465, -15.503, 4.578, 27.395, -0.072, -0.387, -0.145, 20.325, -8.484, -8.911, 23.600, -0.056, 0.453, -0.208, -20.996, 33.752, -13.428, 21.015, 25.790, 20.350
20982, 0.443, 0.113, 0.224, 13.306, -12.451, 8.118, 27.383, -0.014, -0.406, -0.182, 14.404, -13.367, -8.057, 23.588, -0.182, 0.401, -0.072, -31.006, 43.945, -53.223, 21.009, 25.790, 20.330
21017, 0.376, 0.107, 0.405, 6.714, -9.460, -3.540, 27.404, -0.031, -0.428, -0.340, 21.851, -6.104, 9.644, 23.597, -0.186, 0.482, -0.267, 0.671, 21.851, -28.687, 21.003, 25.790, 20.330
21050, 0.391, 0.185, 0.493, 3.052, -17.822, -5.737, 27.416, -0.126, -0.500, -0.409, 26.306, -9.888, 16.907, 23.594, -0.176, 0.566, -0.241, 29.785, -38.269, 37.781, 21.018, 25.930, 20.330
21083, 0.453, 0.208, 0.484, 0.061, -25.574, -3.662, 27.404, -0.159, -0.586, -0.371, 39.429, -10.864, 16.296, 23.621, -0.021, 0.606, -0.400, 13.550, -59.570, 24.048, 21.015, 25.930, 20.330
21119, 0.607, 0.155, 0.345, -2.625, -30.457, 0.854, 27.386, -0.080, -0.714, -0.169, 49.438, -11.353, 2.380, 23.621, -0.210, 0.580, -0.285, -3.113, -20.081, -72.876, 21.015, 25.930, 20.330
21152, 1.006, -0.031, 0.224, -0.610, -35.278, -0.671, 27.365, 0.063, -0.980, 0.201, 41.260, -36.133, -15.320, 23.603, -0.905, 0.704, -0.063, 16.113, 58.167, -131.042, 21.006, 25.730, 20.330
21187, 1.629, 0.074, 0.096, 37.720, -23.132, -16.174, 27.389, 0.041, -1.461, 0.409, 22.827, -83.984, 33.691, 23.597, -1.178, 1.089, -0.228, 27.161, -101.929, 13.245, 21.021, 25.730, 20.350
21220, 1.745, 0.564, 0.422, 45.166, -3.174, -29.968, 27.383, -0.378, -1.733, -0.018, -13.367, -127.441, 54.382, 23.615, -0.892, 1.685, -0.192, 6.897, -72.632, 11.963, 21.018, 25.730, 20.350
21253, 1.769, 0.847, 0.435, 17.151, -7.324, -16.602, 27.368, -0.572, -1.902, -0.146, -9.583, -59.937, 27.100, 23.627, -1.312, 1.261, 0.347, -13.245, -39.368, -11.230, 21.006, 24.150, 20.350
21289, 1.658, 0.529, 0.178, -32.227, -7.019, -2.319, 27.389, -0.289, -1.637, 0.150, 4.211, 60.303, -19.531, 23.594, -1.183, 1.126, 0.187, 113.281, -170.471, 15.747, 21.036, 24.150, 20.330
21322, 1.554, 0.403, 0.236, -45.288, 1.953, -5.615, 27.368, -0.239, -1.482, 0.159, -1.770, 42.480, -6.104, 23.615, -0.899, 1.105, -0.035, 157.410, -166.443, 34.363, 21.030, 24.150, 20.330
21355, 1.440, 0.567, 0.247, -51.880, 8.240, -14.587, 27.395, -0.387, -1.438, 0.049, -7.263, 51.514, 4.883, 23.627, -0.764, 1.377, -0.189, 164.246, 17.578, 74.036, 21.018, 23.410, 20.330
21390, 1.326, 0.475, 0.278, -69.519, 20.264, -11.597, 27.389, -0.366, -1.290, 0.070, -14.282, 83.923, -6.104, 23.606, -0.425, 1.233, -0.281, 28.748, 50.476, 95.825, 21.021, 23.410, 20.310
21423, 1.077, 0.315, 0.339, -72.266, 30.945, -1.648, 27.386, -0.236, -1.064, -0.100, -22.461, 99.915, -13.794, 23.603, -0.386, 0.935, -0.229, -14.526, 38.330, 77.759, 21.027, 23.410, 20.310
21459, 0.779, 0.110, 0.393, -77.881, 38.635, -0.916, 27.398, -0.076, -0.733, -0.229, -15.320, 128.601, -22.949, 23.612, -0.302, 0.648, -0.307, -0.244, 32.532, 50.781, 21.033, 24.330, 20.310
21491, 0.535, -0.025, 0.494, -68.604, 32.043, -6.592, 27.374, 0.004, -0.546, -0.360, -12.024, 132.446, -19.897, 23.582, -0.066, 0.597, -0.563, 10.620, 8.362, 34.241, 21.024, 24.330, 20.310
21523, 0.120, 0.030, 0.835, -34.607, 38.696, -26.978, 27.368, -0.055, -0.293, -0.754, -7.263, 100.037, 25.330, 23.591, 0.217, 0.436, -0.880, 10.559, -7.080, -3.540, 21.036, 24.330, 20.310
21557, -0.096, 0.003, 0.869, -17.761, 12.756, -30.701, 27.359, -0.051, -0.312, -0.750, 19.897, 56.580, 8.545, 23.603, 0.138, 0.317, -0.715, -46.875, -11.780, -19.836, 21.021, 24.170, 20.310
21589, 0.182, -0.061, 0.450, -31.921, -39.429, -0.977, 27.374, 0.114, -0.316, -0.358, 49.927, 43.701, -35.217, 23.612, -0.242, 0.287, -0.400, -82.153, 19.287, 16.357, 21.048, 24.170, 20.330
21621, 0.529, -0.255, 0.251, -26.550, -34.668, -5.798, 27.353, 0.329, -0.370, 0.006, 44.861, 38.940, -24.841, 23.618, -0.303, 0.295, -0.190, -57.617, 22.766, 25.818, 21.018, 24.170, 20.330
21655, 0.496, -0.209, 0.347, -13.306, -18.738, -25.391, 27.356, 0.330, -0.388, -0.214, 22.339, 23.865, 52.856, 23.591, -0.198, 0.473, -0.298, 26.917, -55.664, -20.752, 21.024, 24.450, 20.330
21687, 0.423, -0.007, 0.482, 2.808, -17.883, -46.997, 27.368, 0.185, -0.440, -0.274, 43.335, -37.109, 140.564, 23.621, -0.234, 0.548, -0.406, 26.367, -79.956, -26.428, 21.030, 24.450, 20.290
21721, 0.588, 0.051, 0.488, 10.376, -21.240, -52.307, 27.341, -0.204, -0.735, -0.230, 53.345, -68.420, 148.193, 23.609, -0.233, 0.699, -0.397, 15.320, -63.904, -18.921, 21.033, 24.450, 20.290
21753, 0.646, 0.260, 0.447, 16.846, -38.757, -43.640, 27.353, -0.185, -0.678, -0.207, 61.951, -86.304, 155.762, 23.594, -0.206, 0.790, -0.274, -11.963, -53.223, -10.315, 21.012, 24.510, 20.290
21785, 0.785, 0.446, 0.241, 3.784, -53.406, -42.664, 27.341, -0.584, -0.813, -0.028, 108.887, -14.404, 133.179, 23.597, -0.346, 1.116, 0.334, -36.377, -67.810, 16.479, 21.045, 24.510, 20.330
21819, 1.466, 1.177, -0.026, 5.859, -105.469, -70.679, 27.362, -1.425, -1.315, 0.241, 141.357, 206.421, 0.488, 23.618, -0.419, 1.476, 0.761, 7.385, -137.024, 4.456, 21.027, 24.510, 20.330
21851, 1.763, 1.663, 0.015, -86.914, -15.869, -50.293, 27.356, -1.693, -1.851, 0.217, 179.932, 300.720, 12.512, 23.570, -0.498, 1.625, 0.653, 88.989, -144.409, -59.204, 21.033, 24.650, 20.330
21883, 1.762, 0.936, 0.185, -126.526, -15.442, 43.457, 27.350, -1.446, -1.225, 0.700, 120.056, 182.434, -94.971, 23.606, -0.667, 1.577, 0.395, 83.313, -65.857, -71.960, 21.024, 24.650, 20.310
21917, 1.599, 0.604, 0.201, -99.915, -12.146, 80.811, 27.386, -0.977, -1.310, 0.703, 60.974, 86.548, -119.934, 23.582, -0.833, 1.384, 0.045, 102.234, -12.939, -68.848, 21.045, 24.650, 20.310
21949, 1.482, 0.268, 0.320, -84.961, 6.287, 63.232, 27.380, -0.578, -1.242, 0.471, 43.152, 62.561, -104.980, 23.594, -0.836, 1.302, -0.181, 70.923, 2.319, -45.593, 21.036, 24.690, 20.310
21983, 1.461, 0.172, 0.389, -49.988, 16.357, 45.349, 27.368, -0.515, -1.203, 0.572, 56.458, 61.646, -57.800, 23.612, -0.873, 1.217, -0.208, 49.622, 23.499, -26.062, 21.036, 24.690, 20.310
22015, 1.362, 0.180, 0.360, -26.428, 26.794, 33.569, 27.350, -0.415, -1.127, 0.463, -15.503, 13.062, -61.401, 23.594, -0.829, 1.155, -0.167, 29.907, 44.128, 3.418, 21.030, 24.690, 20.310
22047, 1.255, 0.171, 0.394, -16.907, 37.903, 19.531, 27.374, -0.322, -1.078, 0.295, -31.006, 2.197, -36.499, 23.609, -0.694, 1.037, -0.214, 18.860, 54.749, 22.644, 21.030, 24.530, 20.310
22081, 1.050, 0.210, 0.395, -8.057, 45.349, 11.414, 27.371, -0.295, -0.975, 0.159, -21.057, 3.357, -21.729, 23.600, -0.554, 0.879, -0.217, -6.165, 75.195, 35.828, 21.027, 24.530, 20.330
22113, 0.840, 0.039, 0.389, -9.033, 54.199, 10.071, 27.398, -0.111, -0.845, 0.104, -20.996, 3.235, -32.654, 23.597, -0.422, 0.642, -0.312, -12.939, 95.032, 48.035, 21.021, 24.530, 20.330
22145, 0.573, -0.197, 0.585, 4.700, 65.369, 0.732, 27.374, 0.201, -0.720, -0.144, 8.240, -4.395, -48.157, 23.579, -0.220, 0.568, -0.729, 11.414, 100.037, 41.016, 21.009, 24.650, 20.330
22179, 0.223, -0.262, 0.818, 40.894, 62.317, -14.648, 27.392, 0.256, -0.596, -0.387, 45.349, -28.809, -13.306, 23.570, -0.147, 0.472, -0.800, -36.499, 108.826, 19.409, 20.997, 24.650, 20.310
22211, 0.094, -0.146, 0.576, 50.415, 33.630, -11.475, 27.401, 0.229, -0.359, -0.325, 47.546, -43.518, 16.357, 23.570, -0.242, 0.310, -0.391, -76.538, 60.913, 25.391, 21.003, 24.650, 20.310
22243, 0.260, 0.127, 0.469, 19.775, -5.432, -29.297, 27.383, 0.079, -0.371, -0.378, -13.062, 14.954, 32.043, 23.573, -0.089, 0.333, -0.214, -9.949, -4.517, 31.372, 21.006, 24.750, 20.310
22277, 0.284, 0.093, 0.495, 1.465, -7.080, -50.232, 27.383, -0.029, -0.535, -0.217, -26.306, 42.786, 26.306, 23.570, 0.067, 0.404, -0.331, 2.258, -34.729, 19.897, 21.006, 24.750, 20.310
22310, 0.285, 0.099, 0.463, 3.296, -6.531, -31.006, 27.383, -0.104, -0.534, -0.127, -2.014, 10.254, 23.865, 23.555, 0.059, 0.503, -0.351, -7.080, -12.878, 13.306, 21.006, 24.750, 20.310
22344, 0.412, 0.041, 0.539, 14.954, -10.681, -11.597, 27.389, -0.067, -0.561, -0.072, -4.883, -8.240, 20.874, 23.522, -0.057, 0.560, -0.470, -5.676, 1.892, 2.869, 20.997, 24.930, 20.310
22376, 0.477, 0.037, 0.590, 24.292, -15.686, -3.113, 27.359, -0.058, -0.655, -0.078, -22.400, -31.860, 46.570, 23.525, -0.105, 0.642, -0.462, -23.132, 4.761, 0.061, 20.988, 24.930, 20.290
22408, 0.695, 0.035, 0.477, 33.325, -21.790, 5.676, 27.359, -0.074, -0.846, 0.050, -17.944, -23.254, 53.223, 23.537, -0.408, 0.714, -0.334, -38.696, 11.353, -10.254, 20.991, 24.930, 20.290
22442, 0.949, 0.096, 0.261, 38.208, -22.339, 8.606, 27.383, -0.238, -0.835, 0.333, 11.841, -14.221, 48.767, 23.510, -0.620, 0.819, -0.010, -50.476, 26.123, 13.489, 20.997, 24.930, 20.290
22475, 1.416, 0.329, 0.118, 48.767, -25.085, 2.502, 27.365, -0.655, -1.104, 0.732, -26.489, 18.250, 87.830, 23.510, -0.614, 1.283, 0.233, -20.813, 11.597, 16.907, 21.024, 24.930, 20.270
22507, 1.585, 0.962, 0.267, 57.129, -4.700, -7.324, 27.371, -1.194, -1.466, 0.416, -37.231, -16.174, 49.316, 23.489, -0.524, 1.476, 0.393, -8.728, 6.165, -7.019, 21.018, 24.930, 20.270
22541, 1.528, 1.033, 0.259, 3.845, 16.724, 29.053, 27.383, -1.075, -1.528, 0.167, -19.226, -42.786, -20.935, 23.501, -0.639, 1.329, 0.487, 4.456, 38.452, -1.648, 21.021, 24.930, 20.270
22573, 1.432, 0.444, 0.256, -41.077, 16.907, 37.781, 27.374, -0.502, -1.229, 0.358, 39.124, 11.414, -69.214, 23.495, -0.806, 1.252, 0.132, 72.815, -4.517, -24.841, 21.039, 24.930, 20.270
22607, 1.342, 0.161, 0.365, -36.072, 17.578, 21.606, 27.377, -0.378, -1.007, 0.455, 4.456, 21.057, -49.255, 23.471, -0.689, 1.204, -0.219, 54.016, 1.953, -5.981, 20.991, 24.930, 20.270
22640, 1.177, 0.221, 0.434, -23.682, 20.081, 1.343, 27.386, -0.395, -1.072, 0.280, -28.931, 18.555, -22.400, 23.486, -0.543, 1.121, -0.146, 13.550, 11.597, 11.963, 21.033, 24.750, 20.270
22672, 1.063, 0.278, 0.493, -17.639, 17.944, -3.845, 27.389, -0.382, -1.061, 0.104, -15.381, 14.648, -18.494, 23.489, -0.409, 1.099, -0.200, 20.325, 6.470, 13.489, 21.012, 24.750, 20.270
22706, 0.940, 0.352, 0.558, -14.343, 19.531, -4.883, 27.392, -0.438, -0.995, -0.011, -12.146, 12.939, -8.423, 23.495, -0.234, 1.042, -0.234, 6.714, 12.390, 14.832, 21.021, 24.750, 20.270
22738, 0.829, 0.400, 0.571, -13.123, 21.240, -2.075, 27.392, -0.424, -0.886, -0.101, -15.930, 12.573, -18.677, 23.492, -0.112, 0.897, -0.208, -1.404, 20.996, 13.184, 21.003, 24.870, 20.270
22770, 0.642, 0.215, 0.587, -15.503, 19.226, 10.681, 27.380, -0.257, -0.807, -0.111, -14.038, -2.197, -30.151, 23.495, 0.010, 0.824, -0.403, -2.625, 34.302, 9.949, 21.003, 24.870, 20.310
22805, 0.412, 0.059, 0.831, 2.930, 21.484, 19.714, 27.392, -0.045, -0.783, -0.368, -10.071, -33.142, -25.146, 23.498, 0.052, 0.716, -0.724, -2.563, 49.133, -9.888, 21.000, 24.870, 20.310
22837, 0.252, -0.131, 0.757, 12.207, 3.540, 32.410, 27.383, 0.176, -0.590, -0.338, 14.343, -63.354, 2.136, 23.513, -0.101, 0.600, -0.595, -39.124, 63.904, -8.606, 20.982, 24.950, 20.310
22869, 0.503, -0.208, 0.494, 27.954, -18.311, 23.926, 27.392, 0.242, -0.565, -0.083, 24.597, -57.678, 18.677, 23.504, -0.418, 0.461, -0.435, -21.545, 26.062, 2.747, 20.982, 24.950, 20.270
22903, 0.595, -0.200, 0.415, 28.381, -10.010, -2.075, 27.368, 0.179, -0.532, -0.010, -1.404, -31.067, 39.124, 23.495, -0.364, 0.486, -0.398, -8.667, 12.085, 3.418, 21.006, 24.950, 20.270
22936, 0.520, -0.070, 0.499, 32.410, -5.310, -23.926, 27.398, 0.042, -0.589, -0.088, -19.470, -13.916, 72.998, 23.489, -0.166, 0.584, -0.377, -11.780, -6.348, 4.089, 21.006, 24.990, 20.270
22971, 0.465, 0.057, 0.483, 37.537, -6.226, -13.123, 27.407, -0.546, -0.452, 0.479, -93.018, -49.683, 55.725, 23.489, -0.101, 0.594, -0.360, -34.241, 15.869, 7.751, 21.027, 24.990, 20.290
23004, 0.466, 0.015, 0.547, 54.626, 4.089, -15.259, 27.374, -0.598, -0.144, -0.261, -307.678, -461.365, 55.725, 23.492, -0.067, 0.636, -0.382, -39.978, 9.644, -6.897, 21.000, 25.110, 20.290
23037, 0.464, 0.001, 0.459, 99.915, 8.179, -11.841, 27.377, 0.021, -0.581, -1.171, -297.668, -315.308, -188.354, 23.498, -0.076, 0.656, -0.408, -37.720, 26.184, -12.939, 21.027, 25.110, 20.290
23072, 0.593, 0.255, 0.449, 114.197, -19.836, 11.902, 27.350, -0.356, -0.685, -0.530, 59.631, -31.311, -44.739, 23.480, -0.267, 0.660, -0.169, -81.360, 38.025, 12.085, 21.000, 25.110, 20.250
23105, 0.754, 0.273, 0.184, 66.406, -30.273, 19.104, 27.371, -0.252, -0.825, 0.202, -2.075, -19.836, -149.902, 23.498, -0.394, 0.734, 0.241, -59.998, 37.537, 14.526, 21.024, 25.070, 20.250
23138, 1.389, 0.372, -0.015, 74.951, -34.485, 31.006, 27.380, -0.321, -1.393, 0.472, -3.784, -100.830, -8.789, 23.504, -0.518, 1.158, 0.514, 12.390, 10.620, -14.893, 21.021, 25.070, 20.250
23173, 1.634, 0.694, 0.080, 77.698, -3.906, 15.198, 27.356, -0.558, -1.539, 0.384, 2.808, -140.686, 13.733, 23.519, -0.410, 1.507, 0.381, 41.504, -53.711, -94.727, 21.003, 25.070, 20.270
23206, 1.651, 1.105, 0.170, 57.312, 13.733, 31.738, 27.398, -0.841, -1.714, 0.104, -24.475, -111.084, 3.601, 23.519, -0.411, 1.548, 0.480, 26.367, -21.667, -129.028, 21.015, 25.010, 20.270
23241, 1.438, 0.924, 0.216, -11.475, 29.602, 61.890, 27.356, -0.660, -1.507, 0.045, -38.391, -2.502, -60.974, 23.525, -0.654, 1.246, 0.261, 77.454, -9.644, -170.166, 21.006, 25.010, 20.250
23274, 1.332, 0.348, 0.379, -30.701, 27.954, 72.388, 27.359, -0.260, -1.326, -0.012, -25.818, 26.978, -82.031, 23.513, -0.661, 1.092, -0.184, 121.643, 84.839, -131.470, 21.003, 25.010, 20.250
23307, 1.348, 0.201, 0.398, -6.042, 23.743, 56.641, 27.353, -0.104, -1.278, -0.019, -27.832, -7.568, -56.030, 23.534, -1.223, 1.116, -0.488, 69.702, 149.231, -107.971, 21.006, 24.470, 20.250
23342, 1.345, 0.204, 0.446, 3.845, 30.640, 38.818, 27.404, -0.113, -1.291, -0.145, -29.236, -8.118, -34.790, 23.495, -1.175, 0.986, -0.343, 7.385, 111.511, 23.132, 20.994, 24.470, 20.210
23375, 1.213, 0.166, 0.503, 18.555, 24.658, 29.419, 27.398, -0.105, -1.167, -0.195, -28.137, -3.784, -25.024, 23.543, -0.813, 0.926, -0.461, 27.405, 79.468, 53.406, 20.979, 24.470, 20.210
23408, 1.052, 0.278, 0.412, 28.564, 30.151, 10.132, 27.377, -0.186, -0.995, -0.157, -25.208, -5.310, -1.831, 23.540, -0.590, 0.949, -0.354, -2.075, 66.833, 31.494, 20.997, 24.050, 20.210
23443, 0.791, 0.290, 0.468, 26.428, 36.133, 2.075, 27.362, -0.243, -0.833, -0.294, -22.583, -7.874, 8.179, 23.528, -0.306, 0.729, -0.306, -45.410, 54.626, 22.705, 20.997, 24.050, 20.210
23476, 0.521, 0.300, 0.727, 24.902, 28.442, 6.653, 27.368, -0.296, -0.663, -0.677, -8.850, 12.268, 21.118, 23.543, -0.114, 0.704, -0.589, -25.269, 32.227, 42.175, 20.991, 24.050, 20.210
23509, 0.108, 0.223, 0.944, 35.889, 27.893, 5.676, 27.365, -0.306, -0.396, -0.879, 14.954, 27.954, 23.926, 23.540, 0.150, 0.500, -0.949, -40.405, 10.620, 45.349, 20.991, 24.570, 20.210
23544, 0.164, 0.127, 0.541, 37.537, -31.250, 9.033, 27.371, -0.109, -0.294, -0.442, 40.833, 4.456, -25.146, 23.540, 0.160, 0.485, -0.514, -110.168, -12.878, 21.606, 20.976, 24.570, 20.210
23577, 0.441, 0.150, 0.228, 32.104, -38.025, 1.404, 27.374, -0.077, -0.413, -0.083, 33.142, -20.081, -20.325, 23.531, -0.099, 0.383, -0.070, -97.412, 54.138, -29.785, 20.973, 24.570, 20.210
23612, 0.588, 0.193, 0.107, 24.719, -22.827, -0.061, 27.362, -0.083, -0.514, -0.032, 23.010, -24.231, 4.761, 23.516, -0.256, 0.382, 0.100, -76.233, 61.035, -80.933, 20.982, 25.050, 20.210
23645, 0.469, 0.195, 0.349, 13.611, -18.738, -0.916, 27.344, -0.179, -0.544, -0.274, 30.273, -18.799, 27.161, 23.546, -0.259, 0.552, -0.105, -16.968, 23.376, -50.171, 20.949, 25.050, 20.250
23678, 0.473, 0.267, 0.521, 12.451, -25.146, 5.005, 27.362, -0.272, -0.625, -0.375, 36.072, -23.376, 16.602, 23.534, -0.266, 0.647, -0.318, 68.970, -43.640, 58.289, 20.955, 25.050, 20.250
23713, 0.611, 0.194, 0.406, 10.315, -26.245, 13.672, 27.365, -0.162, -0.687, -0.222, 45.776, -15.625, -0.916, 23.546, -0.087, 0.688, -0.483, 53.528, -23.743, 96.375, 20.976, 25.070, 20.250
23746, 0.774, 0.063, 0.267, 9.277, -28.442, 15.625, 27.350, -0.025, -0.761, 0.000, 38.391, -22.522, -10.498, 23.519, -0.408, 0.653, -0.326, -88.501, 37.231, -76.904, 20.970, 25.070, 20.210
23779, 1.223, -0.175, 0.023, 18.982, -25.879, 15.076, 27.368, 0.229, -1.076, 0.474, 18.921, -67.322, -39.429, 23.528, -1.046, 0.806, 0.091, -91.309, 127.869, -162.292, 20.976, 25.070, 20.210
23814, 1.730, 0.204, -0.081, 54.016, -22.522, -17.273, 27.350, -0.020, -1.450, 0.434, 16.602, -96.375, 46.326, 23.558, -1.203, 1.115, -0.130, -63.904, 37.781, -56.824, 20.994, 25.550, 20.210
23847, 1.683, 0.830, 0.388, 57.373, -20.447, -23.987, 27.338, -0.681, -1.673, 0.004, -23.499, -131.592, 110.657, 23.534, -1.031, 1.421, 0.308, 56.091, -102.173, 109.924, 20.994, 25.550, 20.250
23882, 1.677, 0.854, 0.070, -5.249, -1.221, -7.202, 27.356, -0.620, -1.679, 0.110, -12.512, 13.672, 14.038, 23.525, -0.768, 1.240, 0.099, 91.064, 10.010, 63.782, 20.967, 25.550, 20.250
23915, 1.465, 0.380, 0.139, -43.701, 23.682, -5.127, 27.353, -0.289, -1.388, 0.204, -13.611, 63.660, -31.799, 23.519, -0.872, 1.202, 0.058, -7.324, -4.944, -34.180, 20.970, 25.230, 20.250
23948, 1.431, 0.327, 0.248, -36.438, 20.020, -10.925, 27.350, -0.238, -1.377, 0.086, -7.324, 37.720, 13.062, 23.522, -0.836, 1.160, -0.132, 63.416, -17.639, 21.423, 20.997, 25.230, 20.250
23983, 1.372, 0.297, 0.284, -31.738, 19.836, -8.057, 27.341, -0.302, -1.332, 0.088, -13.245, 37.720, 8.850, 23.537, -0.704, 1.146, -0.254, 55.115, -2.258, 35.828, 20.955, 25.230, 20.250
24016, 1.252, 0.317, 0.335, -28.748, 29.419, -10.620, 27.359, -0.273, -1.191, -0.025, -22.461, 37.842, 6.592, 23.531, -0.608, 1.082, -0.213, 26.978, 5.127, 20.020, 20.988, 25.230, 20.250
24049, 1.095, 0.382, 0.370, -29.419, 30.396, -15.259, 27.311, -0.354, -1.077, -0.093, -30.945, 38.147, 15.198, 23.525, -0.492, 0.980, -0.182, 44.006, 0.793, 38.452, 20.961, 25.230, 20.250
24084, 0.884, 0.326, 0.335, -32.349, 33.936, -10.498, 27.329, -0.312, -0.887, -0.142, -29.480, 58.044, 4.272, 23.540, -0.295, 0.787, -0.192, 32.715, 4.395, 35.217, 20.985, 25.630, 20.250
24117, 0.651, 0.287, 0.489, -37.354, 31.616, -4.700, 27.305, -0.281, -0.684, -0.387, -22.705, 71.716, 2.319, 23.531, -0.126, 0.753, -0.354, 42.480, 2.563, 38.940, 20.982, 25.630, 20.250
24152, 0.273, 0.250, 0.717, -32.288, 45.227, -11.047, 27.320, -0.291, -0.474, -0.642, -2.502, 71.594, 37.048, 23.525, 0.115, 0.719, -0.596, 39.917, -20.081, 86.182, 20.979, 25.630, 20.190
24185, 0.209, 0.059, 0.743, -25.146, 7.507, 0.549, 27.308, -0.063, -0.489, -0.667, 49.194, 38.696, 71.411, 23.504, 0.156, 0.500, -0.601, -51.453, -33.813, 40.161, 21.009, 25.870, 20.190
24218, 0.448, 0.029, 0.325, -18.799, -18.127, 15.442, 27.323, -0.083, -0.535, -0.327, 147.766, 88.257, 73.792, 23.513, -0.142, 0.343, -0.354, -23.621, 9.033, -57.800, 20.985, 25.870, 20.170
24253, 0.656, -0.191, 0.300, -16.541, -2.258, -6.714, 27.299, 0.080, -0.572, -0.038, 186.279, 119.446, 32.837, 23.522, -0.367, 0.500, -0.438, 24.170, 95.032, -91.919, 20.979, 25.870, 20.170
24286, 0.494, -0.101, 0.428, -3.479, 3.418, -20.264, 27.329, -0.079, -0.617, -0.152, 112.671, 136.475, -17.334, 23.519, -0.480, 0.552, -0.337, 3.052, 43.762, 8.362, 20.991, 25.790, 20.170
24319, 0.452, 0.136, 0.500, 11.963, -12.512, -24.170, 27.311, -0.138, -0.542, -0.262, 76.843, 94.238, -44.250, 23.534, -0.184, 0.577, -0.373, -10.437, -62.134, 64.575, 20.979, 25.790, 20.210
24361, 0.464, 0.172, 0.559, 6.226, -17.029, -18.982, 27.296, -0.278, -0.563, -0.084, 60.608, 54.810, -21.362, 23.516, 0.082, 0.605, -0.564, -23.743, -38.574, 26.184, 20.973, 25.790, 20.210
24393, 0.515, 0.143, 0.437, 12.146, -25.391, -8.545, 27.311, -0.199, -0.617, -0.131, 21.484, 25.818, 2.869, 23.528, -0.028, 0.618, -0.295, -42.297, -8.179, -16.174, 20.937, 26.110, 20.210
24425, 0.668, 0.286, 0.158, 19.592, -40.283, -4.395, 27.311, -0.278, -0.734, 0.047, 66.040, 35.645, 7.019, 23.513, -0.298, 0.683, -0.031, -31.006, 37.231, -50.720, 20.964, 26.110, 20.210
24459, 1.315, 0.407, -0.112, 3.174, -43.335, -1.831, 27.305, -0.617, -0.995, 0.701, 59.387, 86.914, 15.320, 23.540, -1.013, 1.230, 0.634, -27.161, 70.496, -87.524, 20.961, 26.110, 20.210
24492, 1.625, 0.483, 0.173, 12.268, -38.818, -6.531, 27.284, -0.825, -1.348, 0.673, 5.920, -0.427, 21.851, 23.531, -0.890, 1.298, 0.041, 36.072, -38.574, -27.161, 20.961, 25.850, 20.210
24526, 1.751, 0.682, 0.247, -3.052, 5.005, 21.606, 27.287, -0.906, -1.478, 0.517, -18.311, -10.315, 23.987, 23.525, -0.664, 1.554, -0.086, 74.341, 5.798, 44.006, 20.973, 25.850, 20.210
24558, 1.487, 0.701, 0.186, -11.292, 16.968, 30.396, 27.296, -0.847, -1.389, 0.290, 5.920, 4.150, -14.954, 23.492, -0.666, 1.242, 0.141, -25.330, 25.879, -48.401, 20.955, 25.850, 20.210
24590, 1.314, 0.455, 0.340, -23.865, 19.714, 37.720, 27.290, -0.581, -1.246, 0.268, 23.010, 3.906, -34.424, 23.513, -0.748, 1.142, -0.095, 65.002, 23.437, -28.931, 20.985, 26.210, 20.210
24624, 1.371, 0.313, 0.360, -16.541, 19.470, 41.260, 27.323, -0.563, -1.246, 0.423, 21.606, -6.165, -32.532, 23.534, -0.628, 1.246, -0.409, 66.956, 19.226, -12.207, 20.967, 26.210, 20.170
24657, 1.308, 0.280, 0.377, -10.559, 26.428, 39.795, 27.290, -0.434, -1.188, 0.303, -16.357, -23.010, -50.171, 23.531, -0.669, 1.105, -0.314, 16.724, 34.729, -37.598, 20.955, 26.210, 20.170
24689, 1.194, 0.224, 0.456, -8.423, 24.597, 34.668, 27.278, -0.289, -1.153, 0.158, -19.897, -18.311, -47.668, 23.498, -0.673, 1.026, -0.383, 39.001, 32.166, -17.090, 20.958, 25.990, 20.170
24723, 1.038, 0.181, 0.431, -9.216, 30.273, 25.818, 27.275, -0.252, -0.990, 0.135, -13.123, -7.202, -35.095, 23.510, -0.465, 0.948, -0.424, 37.598, 22.278, 3.235, 20.985, 25.990, 20.250
24755, 0.871, 0.208, 0.433, -0.244, 27.161, 17.883, 27.296, -0.281, -0.831, 0.059, -25.330, -10.620, -31.555, 23.537, -0.282, 0.815, -0.358, 9.705, 24.292, 11.047, 20.955, 25.990, 20.250
24789, 0.589, 0.160, 0.589, 0.793, 26.245, 18.250, 27.311, -0.117, -0.771, -0.204, -33.325, -25.513, -36.072, 23.528, -0.126, 0.667, -0.483, 7.141, 24.780, 16.602, 20.973, 26.310, 20.250
24822, 0.256, 0.056, 0.837, 3.845, 23.071, 14.526, 27.296, 0.066, -0.702, -0.587, -6.165, -29.114, -30.151, 23.513, 0.066, 0.562, -0.778, 3.174, 3.113, 18.494, 20.982, 26.310, 20.170
24854, 0.229, 0.008, 0.603, 6.531, -6.104, 18.555, 27.272, 0.177, -0.493, -0.457, 54.993, -17.029, 1.038, 23.516, 0.034, 0.471, -0.583, -32.227, -13.855, -10.071, 20.973, 26.310, 20.170
24888, 0.564, 0.044, 0.216, 8.911, -29.114, 2.869, 27.272, -0.031, -0.480, 0.123, 55.054, 18.433, 15.259, 23.525, -0.269, 0.427, -0.172, -51.697, 38.452, -49.072, 20.967, 26.290, 20.170
24920, 0.644, 0.057, 0.195, 4.822, -13.916, -6.531, 27.263, -0.094, -0.510, 0.184, 11.597, 2.625, 2.563, 23.504, -0.393, 0.504, -0.043, -34.363, 38.147, -62.683, 20.967, 26.290, 20.190
24952, 0.568, 0.052, 0.364, -1.587, -5.981, -10.803, 27.263, -0.042, -0.613, -0.014, 0.122, -1.404, 10.864, 23.522, -0.379, 0.500, -0.264, 15.808, -9.277, -1.343, 20.961, 26.290, 20.190
24987, 0.575, 0.059, 0.528, 3.235, -12.024, -16.968, 27.254, -0.062, -0.730, -0.100, 12.451, -0.122, 31.067, 23.519, -0.200, 0.634, -0.474, 47.180, -54.138, 49.316, 20.949, 26.210, 20.190
25019, 0.572, 0.145, 0.541, 6.104, -20.142, -15.503, 27.242, -0.129, -0.773, -0.149, 30.945, -1.282, 47.424, 23.519, -0.101, 0.706, -0.460, -1.526, -58.472, -42.114, 20.949, 26.210, 20.190
25051, 0.703, 0.145, 0.322, 0.427, -28.076, -12.207, 27.257, -0.146, -0.730, 0.048, 43.213, 12.512, 39.612, 23.510, -0.442, 0.617, -0.292, -23.865, -6.104, -42.236, 20.940, 26.210, 20.190
25086, 0.962, 0.139, 0.020, -5.432, -24.963, -17.883, 27.287, -0.296, -0.714, 0.408, 23.926, 43.335, 27.161, 23.504, -0.777, 0.704, 0.080, -31.067, -12.756, 7.324, 20.967, 26.170, 20.190
25119, 1.371, 0.212, -0.095, -2.625, -10.010, -26.245, 27.254, -0.601, -0.913, 0.959, 2.563, 56.946, 20.142, 23.519, -0.668, 1.025, 0.186, 10.681, -17.517, 26.672, 20.940, 26.170, 20.190
25154, 1.275, 0.712, 0.386, 17.578, -13.306, -27.344, 27.224, -0.878, -1.305, 0.097, -68.298, -2.808, 41.748, 23.516, -0.655, 1.271, -0.000, 33.630, -35.034, -4.944, 20.955, 26.170, 20.190
25187, 1.496, 0.790, 0.309, -51.758, -17.090, -9.583, 27.242, -0.747, -1.705, 0.032, 23.987, 36.743, -2.380, 23.501, -1.080, 1.207, 0.114, 23.254, -36.865, 6.165, 20.973, 25.230, 20.190
25220, 1.642, 0.236, 0.109, -94.055, -8.606, -11.169, 27.227, -0.485, -1.255, 0.675, 93.933, 101.563, -52.368, 23.513, -1.160, 1.082, -0.074, 70.984, -66.650, -19.714, 20.943, 25.230, 20.190
25255, 1.539, 0.132, 0.324, -83.496, 2.869, -24.902, 27.242, -0.538, -1.246, 0.671, -2.563, 62.073, -16.785, 23.522, -0.925, 1.244, -0.396, 132.324, -94.482, 42.725, 20.949, 25.230, 20.190
25288, 1.495, 0.236, 0.365, -59.753, -0.610, -26.367, 27.227, -0.506, -1.357, 0.454, -0.061, 54.688, -8.240, 23.501, -0.907, 1.155, -0.350, 22.583, -60.303, 2.197, 20.949, 24.210, 20.190
25321, 1.450, 0.247, 0.321, -48.950, 4.456, -23.804, 27.239, -0.518, -1.222, 0.496, 6.958, 55.725, -12.512, 23.510, -0.837, 1.092, -0.236, 45.654, -46.387, 28.931, 20.967, 24.210, 20.210
25356, 1.294, 0.290, 0.319, -40.588, 19.592, -22.156, 27.248, -0.514, -1.115, 0.397, -17.761, 41.016, -5.005, 23.516, -0.651, 0.979, -0.184, 70.618, -83.008, 50.659, 20.952, 24.350, 20.210
25389, 1.058, 0.286, 0.352, -44.189, 26.611, -13.550, 27.245, -0.422, -1.031, 0.198, -26.367, 33.997, -14.893, 23.510, -0.762, 0.689, -0.137, 72.693, -30.090, 66.528, 20.961, 24.350, 20.210
25424, 0.872, 0.046, 0.285, -51.819, 32.532, -1.770, 27.221, -0.136, -0.767, 0.227, -19.775, 24.719, -27.161, 23.525, -0.318, 0.583, -0.328, 99.060, -112.610, 119.324, 20.952, 24.350, 20.210
25457, 0.649, -0.042, 0.560, -40.710, 47.119, -5.737, 27.248, -0.051, -0.655, -0.053, -40.588, 3.479, -13.000, 23.486, -0.042, 0.752, -0.807, 53.650, -20.386, 94.971, 20.949, 23.690, 20.210
25490, 0.314, 0.032, 0.741, -31.616, 56.335, -27.466, 27.230, -0.038, -0.713, -0.475, -38.940, 1.465, 8.301, 23.510, 0.119, 0.597, -0.879, -11.780, 50.964, 92.407, 20.958, 23.690, 20.210
25525, 0.220, -0.073, 0.689, -25.391, 4.944, -16.785, 27.248, 0.104, -0.594, -0.426, 36.743, 4.272, 10.864, 23.519, -0.109, 0.483, -0.540, -28.015, 2.930, 25.757, 20.958, 23.690, 20.190
25558, 0.519, -0.178, 0.426, -28.259, -19.348, -21.240, 27.242, 0.176, -0.573, -0.036, 37.964, 20.020, 16.846, 23.504, -0.348, 0.455, -0.399, -20.569, -8.179, 33.752, 20.931, 24.050, 20.190
25591, 0.554, -0.089, 0.357, -7.446, -15.137, -34.424, 27.236, 0.047, -0.552, 0.029, 38.940, 44.128, 15.991, 23.486, -0.214, 0.523, -0.329, -14.526, -4.517, 48.035, 20.940, 24.050, 20.190
25626, 0.490, 0.079, 0.434, 4.333, -12.817, -38.818, 27.239, -0.175, -0.555, 0.008, -1.160, 27.161, 22.522, 23.498, -0.062, 0.601, -0.372, -27.100, -9.521, 36.133, 20.937, 24.050, 20.190
25659, 0.495, 0.136, 0.455, 9.277, -16.113, -31.006, 27.236, -0.209, -0.653, -0.070, 0.549, 14.221, 14.282, 23.516, 0.031, 0.627, -0.337, -38.879, -5.310, 18.433, 20.958, 23.850, 20.190
25692, 0.425, 0.194, 0.552, 19.592, -21.240, -19.653, 27.248, -0.239, -0.658, -0.182, 10.986, -7.690, 21.790, 23.489, 0.070, 0.626, -0.378, -36.377, -4.700, -3.418, 20.952, 23.850, 20.130
25727, 0.484, 0.252, 0.424, 19.531, -33.630, -8.423, 27.263, -0.292, -0.655, -0.120, 42.297, -15.625, 28.809, 23.516, -0.054, 0.664, -0.202, -48.096, 9.399, -1.892, 20.940, 23.850, 20.130
25760, 0.668, 0.344, 0.164, 10.803, -38.635, -7.080, 27.224, -0.455, -0.636, 0.147, 56.824, 12.390, 15.747, 23.495, -0.238, 0.731, 0.218, -72.937, 21.057, 12.268, 20.967, 23.850, 20.130
25795, 1.206, 0.565, -0.045, 0.793, -41.992, 0.488, 27.245, -0.754, -0.896, 0.749, 16.296, 22.766, 2.136, 23.516, -0.297, 1.184, 0.490, -51.514, -9.705, 15.259, 20.973, 23.850, 20.170
25828, 1.458, 0.766, 0.291, 1.709, -23.254, 7.568, 27.245, -1.037, -1.476, 0.408, -21.545, -2.991, 9.155, 23.489, -0.293, 1.508, 0.292, 44.983, -38.025, -34.912, 20.943, 23.850, 20.170
25861, 1.690, 0.771, 0.263, -27.649, -10.986, 33.203, 27.236, -0.943, -1.470, 0.451, 16.602, -5.005, -38.330, 23.492, -0.427, 1.605, 0.202, 47.607, -19.409, -34.912, 20.946, 24.050, 20.170
25896, 1.551, 0.568, 0.310, -45.105, 5.493, 54.016, 27.212, -0.785, -1.370, 0.466, 36.621, 9.277, -61.523, 23.513, -0.503, 1.446, 0.115, 33.020, 20.569, -30.640, 20.958, 24.050, 20.150
25929, 1.463, 0.227, 0.367, -43.396, 9.033, 54.321, 27.254, -0.457, -1.280, 0.487, 21.667, 6.531, -69.946, 23.507, -0.531, 1.385, -0.091, 59.937, 4.578, -43.457, 20.949, 24.050, 20.150
25962, 1.477, 0.222, 0.392, -22.583, 13.367, 49.805, 27.239, -0.508, -1.233, 0.580, 19.958, 1.587, -53.772, 23.513, -0.554, 1.396, -0.157, 46.265, 24.170, -33.142, 20.958, 23.850, 20.150
25997, 1.477, 0.179, 0.361, -12.878, 23.987, 48.340, 27.263, -0.355, -1.258, 0.478, -16.724, -25.635, -50.415, 23.492, -0.636, 1.306, -0.137, 36.316, 42.603, -17.456, 20.934, 23.850, 20.150
26030, 1.362, 0.057, 0.400, -7.446, 36.743, 40.283, 27.242, -0.206, -1.146, 0.442, -20.874, -16.602, -42.114, 23.471, -0.614, 1.220, -0.273, 43.884, 51.147, 0.427, 20.934, 23.850, 20.150
26065, 1.177, 0.011, 0.392, 3.723, 48.523, 24.719, 27.239, -0.188, -1.001, 0.398, -31.067, -21.118, -25.696, 23.477, -0.469, 1.051, -0.295, 17.639, 80.078, 26.062, 20.949, 24.030, 20.150
26098, 0.904, 0.024, 0.420, 12.146, 59.448, 13.489, 27.224, -0.070, -0.792, 0.143, -58.533, -28.870, -21.179, 23.489, -0.179, 0.818, -0.346, 0.061, 90.027, 39.917, 20.937, 24.030, 20.150
26131, 0.461, -0.005, 0.774, 22.644, 65.247, 1.221, 27.266, 0.023, -0.761, -0.343, -83.374, -47.974, -4.761, 23.486, 0.101, 0.729, -0.716, 11.353, 71.350, 28.320, 20.946, 24.030, 20.150
26166, 0.126, -0.115, 0.859, 20.325, 45.715, -1.465, 27.239, 0.184, -0.756, -0.650, -24.414, -53.955, 16.846, 23.492, 0.107, 0.576, -0.768, -2.258, 60.303, 19.287, 20.943, 24.090, 20.150
26199, 0.180, -0.025, 0.516, 37.170, -7.080, -2.563, 27.242, 0.140, -0.382, -0.430, 63.232, -21.240, 23.804, 23.492, -0.042, 0.480, -0.395, -75.195, 66.650, 25.269, 20.961, 24.090, 20.150
26232, 0.358, 0.163, 0.331, 21.057, -9.888, -31.067, 27.227, -0.032, -0.410, -0.174, 26.794, 28.259, 31.616, 23.492, -0.062, 0.420, -0.037, -63.110, 40.161, 25.879, 20.922, 24.090, 20.150
26267, 0.412, 0.125, 0.351, 5.432, -7.568, -29.541, 27.239, -0.150, -0.532, 0.006, 19.470, 32.043, 20.325, 23.477, 0.075, 0.486, -0.127, -2.441, -14.404, 9.216, 20.922, 24.230, 20.150
26300, 0.375, 0.157, 0.496, 0.977, -6.226, -20.142, 27.257, -0.152, -0.557, -0.171, -11.108, -1.282, 5.066, 23.477, 0.056, 0.591, -0.296, 10.620, -19.958, -1.160, 20.955, 24.230, 20.130
26333, 0.447, 0.079, 0.512, -1.953, -14.709, -19.531, 27.233, -0.043, -0.641, -0.178, 13.184, 8.850, 12.817, 23.480, 0.046, 0.636, -0.354, -12.573, -13.000, 6.348, 20.946, 24.230, 20.130
26368, 0.523, 0.079, 0.509, -0.610, -22.705, -17.761, 27.245, -0.096, -0.653, -0.041, 21.240, 7.935, 23.254, 23.501, -0.055, 0.677, -0.288, -17.883, -10.925, 2.441, 20.952, 24.290, 20.130
26401, 0.667, 0.041, 0.353, -0.488, -27.527, -17.822, 27.245, -0.080, -0.663, 0.099, 31.250, 20.264, 31.555, 23.471, -0.279, 0.733, -0.160, -24.536, -8.606, 5.554, 20.943, 24.290, 20.150
26436, 1.040, 0.038, 0.086, 6.409, -20.691, -20.264, 27.245, -0.240, -0.721, 0.512, 29.541, 46.692, 31.494, 23.477, -0.498, 0.990, 0.129, -28.992, -1.953, 23.987, 20.937, 24.350, 20.150
26469, 1.448, 0.261, 0.235, 36.133, -10.193, -39.551, 27.230, -0.677, -1.014, 0.846, -45.776, 25.879, 48.767, 23.471, -0.291, 1.404, 0.138, -7.202, -27.771, 14.099, 20.958, 24.350, 20.150
26502, 1.434, 1.024, 0.550, 27.405, 5.554, -37.048, 27.251, -1.161, -1.601, 0.113, -95.398, 13.794, 62.256, 23.453, -0.237, 1.501, 0.308, 0.793, -12.756, 0.488, 20.943, 24.350, 20.110
26538, 1.606, 0.664, 0.262, -58.716, 15.686, 4.333, 27.221, -0.749, -1.644, 0.241, 27.039, 15.015, -34.119, 23.456, -0.511, 1.465, 0.335, 32.593, -21.545, 9.277, 20.982, 24.350, 20.110
26571, 1.541, 0.191, 0.376, -58.472, 10.681, 10.620, 27.212, -0.491, -1.176, 0.675, 81.482, 57.251, -51.025, 23.456, -0.488, 1.474, -0.103, 73.059, -43.884, -6.836, 20.964, 24.350, 20.110
26604, 1.389, 0.119, 0.508, -33.875, 17.883, -4.883, 27.230, -0.385, -1.165, 0.504, -27.466, 21.790, -20.813, 23.480, -0.446, 1.429, -0.270, 34.607, -17.212, 8.789, 20.967, 24.350, 20.110
26639, 1.360, 0.267, 0.467, -17.944, 18.127, -11.292, 27.212, -0.449, -1.278, 0.324, -24.658, 17.700, -3.967, 23.477, -0.348, 1.346, -0.077, 8.850, 4.578, 27.283, 20.967, 24.290, 20.110
26672, 1.241, 0.345, 0.503, -20.386, 21.484, -9.216, 27.218, -0.521, -1.167, 0.250, -12.573, 26.489, -4.333, 23.477, -0.237, 1.263, -0.062, 30.762, -8.850, 21.790, 20.964, 24.290, 20.130
26706, 1.082, 0.349, 0.481, -23.437, 24.719, -3.479, 27.230, -0.461, -1.069, 0.140, -24.597, 20.996, -13.428, 23.465, -0.146, 1.073, -0.111, 28.931, -0.916, 19.958, 20.970, 24.290, 20.130
26741, 0.853, 0.182, 0.457, -26.978, 29.907, 1.831, 27.233, -0.246, -0.861, 0.113, -22.766, 18.738, -33.447, 23.480, -0.069, 0.868, -0.213, 32.043, 9.460, 18.127, 20.946, 24.350, 20.130
26774, 0.601, 0.007, 0.596, -11.414, 32.593, 4.639, 27.218, -0.075, -0.688, -0.094, -43.091, -0.183, -34.851, 23.465, 0.161, 0.716, -0.540, 21.667, 24.719, 21.729, 20.952, 24.350, 20.110
26809, 0.160, -0.101, 0.905, 13.184, 43.518, 7.263, 27.212, 0.065, -0.702, -0.467, -43.457, -37.903, -4.944, 23.474, 0.378, 0.567, -0.786, 16.724, 42.542, -24.414, 20.925, 24.350, 20.110
26842, -0.002, -0.100, 0.756, 25.269, 12.695, 17.639, 27.218, 0.238, -0.571, -0.621, 33.325, -55.664, 10.681, 23.486, 0.164, 0.458, -0.503, 25.635, -13.184, -93.384, 20.937, 24.470, 20.110
26875, 0.271, -0.036, 0.513, 11.108, -24.536, 12.817, 27.242, 0.195, -0.464, -0.336, 72.754, -17.578, 15.564, 23.468, 0.001, 0.413, -0.275, 74.158, -78.186, -134.033, 20.937, 24.470, 20.110
26910, 0.424, -0.135, 0.389, 4.456, -23.743, -10.620, 27.227, 0.190, -0.439, -0.056, 40.833, 18.494, 1.282, 23.465, -0.106, 0.479, -0.428, 142.883, -93.811, -200.867, 20.940, 24.470, 20.110
26943, 0.333, -0.072, 0.493, 18.677, -20.203, -16.968, 27.230, -0.022, -0.452, -0.062, 22.522, 12.024, 23.376, 23.453, -0.208, 0.337, -0.627, 64.270, 22.522, -129.150, 20.955, 24.510, 20.110
26976, 0.374, -0.051, 0.502, 28.259, -20.081, -12.390, 27.230, 0.043, -0.570, -0.111, -19.287, -18.982, 11.963, 23.486, -0.229, 0.473, -0.741, -8.789, 95.276, 40.100, 20.940, 24.510, 20.110
27011, 0.372, 0.003, 0.639, 40.161, -30.396, -16.296, 27.218, 0.026, -0.641, -0.268, 24.841, -11.292, 33.752, 23.468, -0.393, 0.515, -0.531, -56.030, 23.865, 9.766, 20.952, 24.510, 20.110
27045, 0.505, 0.027, 0.428, 48.340, -40.466, -7.324, 27.230, -0.098, -0.607, 0.015, 52.551, -9.094, 49.072, 23.474, -0.199, 0.420, -0.495, -101.013, 0.977, 4.456, 20.916, 23.290, 20.110
27080, 0.708, 0.097, 0.138, 64.453, -39.917, 2.380, 27.218, -0.346, -0.563, 0.367, 32.104, -10.986, 48.340, 23.462, -0.289, 0.606, -0.104, -100.281, 42.725, 8.545, 20.934, 23.290, 20.110
27113, 1.187, 0.309, -0.145, 68.298, -44.006, 11.963, 27.194, -0.692, -0.807, 1.033, -12.817, -22.583, 55.054, 23.447, -0.670, 1.024, 0.444, -55.908, 95.581, 14.343, 20.943, 23.290, 20.110
27146, 1.559, 0.625, -0.022, 68.787, -43.396, 14.099, 27.218, -0.885, -1.252, 0.507, -53.406, -38.025, 51.392, 23.435, -0.975, 1.152, 0.218, -1.648, 34.790, -12.634, 20.925, 23.650, 20.110
27181, 1.729, 0.855, 0.286, 52.856, -9.644, 15.381, 27.209, -1.189, -1.535, 0.495, -16.357, -40.405, 19.531, 23.471, -0.669, 1.732, 0.026, 29.846, 29.541, -11.963, 20.919, 23.650, 20.130
27214, 1.738, 0.947, 0.132, 13.733, 10.864, 42.358, 27.209, -1.166, -1.375, 0.440, -0.854, -56.458, -20.203, 23.459, -0.598, 1.481, 0.248, -24.109, 28.381, -29.114, 20.937, 23.650, 20.130
27247, 1.400, 0.609, 0.386, -12.878, 25.940, 48.706, 27.218, -0.821, -1.337, 0.314, -17.151, -34.790, -54.810, 23.465, -0.667, 1.233, -0.150, 63.477, 36.987, -48.889, 20.925, 23.750, 20.130
27283, 1.391, 0.269, 0.383, -8.362, 21.545, 59.509, 27.215, -0.555, -1.164, 0.538, -34.119, -79.224, -65.613, 23.465, -0.637, 1.254, -0.448, 86.853, 29.419, -47.729, 20.916, 23.750, 20.110
27315, 1.392, 0.208, 0.378, 12.695, 32.166, 49.072, 27.242, -0.406, -1.210, 0.331, -63.110, -80.322, -51.819, 23.453, -0.737, 1.168, -0.494, 25.085, 43.945, -43.823, 20.907, 23.750, 20.110
27347, 1.221, 0.220, 0.482, 23.315, 38.269, 36.499, 27.227, -0.335, -1.129, 0.166, -62.866, -51.880, -42.664, 23.459, -0.559, 1.055, -0.497, 15.259, 44.495, -21.790, 20.931, 24.450, 20.110
27381, 0.986, 0.299, 0.467, 22.583, 40.955, 30.457, 27.212, -0.494, -0.897, 0.205, -119.873, -89.844, -30.884, 23.438, -0.424, 0.923, -0.355, 7.080, 42.419, -7.874, 20.922, 24.450, 20.070
27413, 0.792, 0.261, 0.419, 18.799, 38.086, 28.748, 27.218, -0.314, -0.625, -0.166, -184.875, -165.344, -22.034, 23.465, -0.274, 0.781, -0.362, 2.686, 33.630, 0.244, 20.922, 24.450, 20.070
27447, 0.496, 0.138, 0.694, 37.109, 45.044, 17.822, 27.212, -0.134, -0.746, -0.659, -198.303, -179.199, -52.734, 23.438, -0.088, 0.605, -0.701, -1.892, 21.729, -3.906, 20.910, 24.630, 20.070
27479, 0.279, 0.046, 0.821, 55.359, 33.691, 18.921, 27.224, -0.040, -0.647, -0.833, -66.772, -144.531, -15.808, 23.462, 0.073, 0.577, -0.822, -41.931, 19.165, 5.615, 20.907, 24.630, 20.070
27511, 0.292, 0.134, 0.515, 50.293, -21.606, 23.437, 27.248, -0.083, -0.358, -0.510, -20.874, -91.553, -14.465, 23.450, -0.042, 0.581, -0.365, -62.500, 17.151, 1.099, 20.904, 24.630, 20.070
27545, 0.511, 0.229, 0.252, 29.236, -34.973, -3.479, 27.212, -0.150, -0.491, -0.189, 12.329, -6.104, -33.813, 23.456, -0.258, 0.410, -0.016, -66.956, 27.710, -45.349, 20.913, 24.930, 20.070
27577, 0.603, 0.211, 0.122, 6.165, -21.118, -2.197, 27.218, -0.138, -0.528, -0.005, 16.052, -4.883, -11.169, 23.459, -0.349, 0.485, 0.022, -43.823, 27.649, -66.650, 20.922, 24.930, 20.110
27609, 0.508, 0.091, 0.335, 4.028, -11.108, -9.033, 27.212, -0.089, -0.518, -0.167, 13.977, -26.794, 17.944, 23.441, -0.305, 0.529, -0.259, -0.122, -17.944, -3.723, 20.937, 24.930, 20.110
27643, 0.521, 0.179, 0.477, 11.108, -14.343, -15.259, 27.212, -0.225, -0.638, -0.298, 23.865, -52.551, 38.574, 23.423, -0.197, 0.593, -0.329, 33.508, -60.669, 48.157, 20.931, 24.770, 20.110
27675, 0.625, 0.193, 0.377, 5.188, -28.992, 0.549, 27.212, -0.226, -0.687, -0.216, 31.677, -49.133, 26.733, 23.423, -0.052, 0.736, -0.420, -29.724, -21.179, -10.437, 20.907, 24.770, 20.110
27709, 0.786, 0.098, 0.236, -2.502, -32.166, -4.211, 27.206, -0.137, -0.756, 0.008, 23.132, -15.137, -4.028, 23.441, -0.596, 0.644, -0.100, -42.786, 32.715, -57.251, 20.919, 24.770, 20.110
27741, 1.248, -0.028, 0.062, -0.122, -28.503, -8.728, 27.170, -0.029, -1.211, 0.497, -0.305, -20.935, -47.668, 23.435, -1.081, 0.972, 0.119, -67.322, 17.517, -46.082, 20.922, 25.010, 20.110
27773, 1.796, 0.217, 0.038, 41.809, -27.466, -34.180, 27.215, -0.171, -1.546, 0.542, -5.676, -95.825, 21.118, 23.462, -0.973, 1.487, -0.004, 39.612, -91.125, 44.373, 20.898, 25.010, 20.090
27807, 1.778, 0.906, 0.453, 46.753, -3.357, -27.039, 27.194, -0.866, -1.811, -0.106, -30.334, -129.700, 102.417, 23.441, -0.774, 1.611, -0.132, -24.536, -19.836, 1.892, 20.928, 25.010, 20.090
27839, 1.698, 0.836, 0.273, -16.357, -3.479, -2.136, 27.191, -0.746, -1.740, -0.167, -4.456, -13.184, 33.997, 23.417, -1.058, 1.207, 0.199, 2.930, 4.150, 11.353, 20.922, 24.570, 20.090
27871, 1.516, 0.299, 0.201, -47.668, 10.010, 0.610, 27.200, -0.302, -1.389, 0.230, 10.681, 92.346, -49.805, 23.432, -0.855, 1.197, -0.072, 51.880, -4.944, 24.048, 20.925, 24.570, 20.070
27905, 1.377, 0.199, 0.255, -29.175, 11.719, -8.057, 27.197, -0.261, -1.283, 0.186, -18.250, 20.752, 5.493, 23.435, -0.752, 1.141, -0.171, 40.833, -8.667, 14.954, 20.892, 24.570, 20.070
27937, 1.289, 0.319, 0.297, -18.494, 9.644, -10.254, 27.206, -0.354, -1.270, -0.001, -23.315, -0.183, 10.010, 23.441, -0.676, 1.086, -0.160, 31.128, -5.005, 21.606, 20.913, 24.410, 20.070
27971, 1.194, 0.321, 0.327, -24.475, 17.944, -8.240, 27.197, -0.363, -1.157, -0.044, -19.592, 26.855, -2.502, 23.423, -0.585, 0.984, -0.216, 45.288, 9.277, 30.396, 20.928, 24.410, 20.070
28003, 1.043, 0.237, 0.381, -22.705, 23.010, -1.770, 27.194, -0.314, -1.022, -0.090, -23.376, 27.832, -4.822, 23.435, -0.487, 0.874, -0.290, 35.828, 12.634, 25.208, 20.937, 24.410, 20.070
28035, 0.891, 0.111, 0.350, -15.869, 24.658, 4.761, 27.182, -0.174, -0.883, -0.131, -25.635, 36.682, -18.127, 23.423, -0.394, 0.747, -0.341, 29.907, 25.085, 23.376, 20.910, 24.570, 20.070
28070, 0.728, 0.056, 0.510, -6.897, 27.100, 8.118, 27.176, -0.135, -0.730, -0.345, -15.930, 37.048, -11.475, 23.420, -0.262, 0.689, -0.536, 34.241, 27.710, 41.870, 20.907, 24.570, 20.070
28102, 0.432, 0.074, 0.659, 11.841, 28.381, 2.380, 27.191, -0.203, -0.588, -0.490, -5.920, 12.695, 3.906, 23.432, -0.049, 0.660, -0.630, -5.920, 14.282, 38.574, 20.901, 24.570, 20.070
28134, 0.444, 0.062, 0.485, 15.442, -4.395, 8.911, 27.200, -0.109, -0.582, -0.371, -0.732, -3.540, -29.602, 23.432, -0.132, 0.445, -0.453, -31.311, 25.146, -13.550, 20.883, 24.810, 20.070
