millis,acc_x_c,acc_y_c,acc_z_c,gyro_x_c,gyro_y_c,gyro_z_c,imu_temp_c,acc_x_l,acc_y_l,acc_z_l,gyro_x_l,gyro_y_l,gyro_z_l,imu_temp_l,acc_x_r,acc_y_r,acc_z_r,gyro_x_r,gyro_y_r,gyro_z_r,imu_temp_r,obj_temp,amb_temp
7379, 0.859, 0.257, 0.606, 11.047, 9.705, 19.409, 23.474, -0.542, -0.876, 0.002, -16.907, -14.709, -12.146, 20.697, -0.403, 0.796, -0.556, 7.019, 33.081, 14.465, 19.209, 26.050, 19.310
7414, 0.859, 0.244, 0.619, 5.981, 7.690, 14.771, 23.465, -0.548, -0.870, 0.030, -12.329, -9.094, -12.573, 20.691, -0.410, 0.790, -0.567, 8.179, 18.982, -1.831, 19.209, 26.050, 19.310
7455, 0.884, 0.190, 0.613, 3.174, 4.578, 16.296, 23.459, -0.530, -0.869, 0.105, -22.705, -13.245, 3.357, 20.700, -0.389, 0.810, -0.601, 19.287, -3.845, 21.179, 19.203, 26.030, 19.310
7491, 0.889, 0.163, 0.619, 7.874, 3.174, 13.855, 23.477, -0.595, -0.787, 0.130, -65.796, -32.898, 9.949, 20.709, -0.319, 0.828, -0.658, 21.851, 5.066, 26.428, 19.200, 26.030, 19.270
7527, 0.879, 0.180, 0.616, 19.470, 4.150, 10.986, 23.480, -0.489, -0.862, -0.006, -82.275, -46.753, 26.550, 20.694, -0.288, 0.862, -0.624, 6.042, 12.207, -0.488, 19.215, 26.030, 19.270
7569, 0.855, 0.194, 0.598, 34.485, 5.676, 16.785, 23.483, -0.506, -0.855, -0.090, -80.627, -63.293, 28.564, 20.680, -0.269, 0.845, -0.606, -13.489, 6.409, -25.024, 19.224, 25.870, 19.270
7605, 0.795, 0.228, 0.598, 45.776, 10.315, 20.203, 23.459, -0.538, -0.815, -0.146, -42.175, -52.124, 17.395, 20.691, -0.228, 0.830, -0.534, -33.997, 12.146, -42.297, 19.218, 25.870, 19.250
7646, 0.771, 0.321, 0.570, 52.673, 10.803, 23.193, 23.459, -0.655, -0.759, -0.097, 12.939, -40.833, 17.456, 20.697, -0.305, 0.772, -0.415, -35.645, 29.663, -71.106, 19.218, 25.790, 19.250
7682, 0.785, 0.377, 0.541, 49.072, 12.817, 28.687, 23.471, -0.682, -0.722, -0.045, 29.846, -32.166, -0.549, 20.706, -0.427, 0.722, -0.347, -24.902, 51.514, -54.932, 19.215, 25.790, 19.270
7719, 0.780, 0.367, 0.551, 37.598, 14.648, 32.654, 23.492, -0.672, -0.718, -0.042, 25.513, -26.062, -12.146, 20.694, -0.423, 0.715, -0.388, 9.766, 53.040, -11.108, 19.212, 25.790, 19.270
7761, 0.778, 0.313, 0.565, 22.400, 13.367, 34.546, 23.498, -0.684, -0.764, -0.026, -0.366, -22.034, -30.701, 20.683, -0.390, 0.746, -0.443, 15.564, 50.964, -4.883, 19.239, 25.790, 19.270
7797, 0.756, 0.295, 0.607, 13.977, 8.667, 35.461, 23.486, -0.604, -0.728, -0.003, 5.615, -24.292, -28.870, 20.691, -0.360, 0.765, -0.516, 18.188, 22.766, 4.517, 19.221, 25.790, 19.270
7833, 0.805, 0.250, 0.588, 8.545, 3.967, 33.264, 23.489, -0.548, -0.799, -0.015, -2.197, -25.757, -11.963, 20.709, -0.355, 0.760, -0.535, 16.785, 32.410, -4.883, 19.209, 25.670, 19.270
7872, 0.838, 0.155, 0.609, 6.287, 1.526, 27.588, 23.471, -0.481, -0.832, -0.005, 7.324, -19.287, -14.954, 20.700, -0.391, 0.782, -0.653, 22.766, 36.865, 4.456, 19.203, 25.670, 19.270
7902, 0.899, 0.111, 0.602, 11.414, 3.418, 16.846, 23.501, -0.454, -0.845, 0.071, 18.127, -14.343, -9.705, 20.689, -0.396, 0.781, -0.763, 27.405, 33.264, 24.902, 19.224, 25.670, 19.270
7932, 0.912, 0.137, 0.586, 19.226, 4.150, 6.531, 23.486, -0.474, -0.833, 0.118, 14.648, -8.118, 2.319, 20.706, -0.390, 0.813, -0.691, 7.080, 22.644, 25.513, 19.254, 25.670, 19.270
7964, 0.906, 0.176, 0.558, 24.109, 4.761, -2.258, 23.477, -0.538, -0.810, 0.163, 1.221, -16.174, 20.447, 20.689, -0.403, 0.770, -0.637, -6.714, 7.568, 6.104, 19.230, 25.670, 19.270
7994, 0.896, 0.203, 0.542, 26.733, 5.371, -4.578, 23.489, -0.562, -0.766, 0.195, -5.859, -13.184, 30.884, 20.686, -0.405, 0.813, -0.639, -8.667, -26.245, 22.583, 19.224, 25.670, 19.270
8026, 0.870, 0.196, 0.532, 36.255, 6.958, -5.981, 23.477, -0.564, -0.750, 0.165, -24.902, -23.010, 38.696, 20.700, -0.281, 0.825, -0.619, -32.104, -28.015, 38.635, 19.236, 25.590, 19.270
8056, 0.882, 0.267, 0.528, 45.959, 10.742, -6.104, 23.483, -0.674, -0.763, 0.124, -16.296, -18.250, 38.513, 20.709, -0.242, 0.877, -0.536, -38.086, 4.700, 15.076, 19.215, 25.590, 19.270
8086, 0.857, 0.433, 0.501, 49.500, 17.822, -7.324, 23.492, -0.761, -0.758, 0.124, -2.441, -7.019, 18.799, 20.683, -0.318, 0.886, -0.361, -58.350, 30.090, -13.367, 19.242, 25.590, 19.310
8118, 0.922, 0.528, 0.485, 45.898, 21.912, 1.831, 23.486, -0.872, -0.809, 0.115, 1.221, -0.427, 5.981, 20.697, -0.440, 0.858, -0.180, -33.203, 27.466, -31.250, 19.218, 25.590, 19.310
8148, 0.946, 0.574, 0.487, 28.137, 20.020, 14.648, 23.483, -0.857, -0.757, 0.181, 10.498, 3.845, -16.174, 20.700, -0.544, 0.894, -0.229, 26.733, 18.250, 1.343, 19.242, 25.490, 19.310
8178, 0.961, 0.487, 0.523, 17.883, 25.452, 18.555, 23.483, -0.824, -0.774, 0.261, -3.174, -7.935, -15.808, 20.712, -0.444, 0.877, -0.425, 50.354, 40.833, 70.007, 19.239, 25.490, 19.350
8210, 1.000, 0.445, 0.539, 6.226, 24.292, 26.489, 23.471, -0.776, -0.875, 0.147, 8.423, 8.667, -22.705, 20.706, -0.419, 0.944, -0.401, 51.636, 49.744, 90.027, 19.242, 25.490, 19.350
8240, 0.992, 0.481, 0.577, -2.991, 28.137, 25.513, 23.495, -0.768, -0.854, 0.149, -3.235, 5.493, -32.471, 20.709, -0.379, 1.032, -0.576, 93.445, 31.738, 92.712, 19.221, 25.470, 19.350
8270, 1.047, 0.346, 0.556, -5.615, 29.297, 20.508, 23.504, -0.733, -0.848, 0.371, 6.531, 6.409, -42.725, 20.691, -0.248, 0.998, -0.738, 68.420, 45.715, 72.998, 19.242, 25.470, 19.310
8302, 1.051, 0.280, 0.611, -6.042, 27.283, 21.973, 23.507, -0.628, -0.841, 0.376, -22.583, -8.972, -15.015, 20.694, -0.252, 1.002, -0.831, -3.540, 30.212, -22.034, 19.251, 25.470, 19.310
8332, 1.024, 0.216, 0.592, 5.066, 28.625, 14.038, 23.498, -0.569, -0.871, 0.271, -62.439, -14.221, 9.033, 20.709, -0.320, 0.925, -0.683, -21.118, 33.081, -35.706, 19.239, 25.310, 19.310
8364, 0.992, 0.285, 0.579, 12.024, 25.696, 5.188, 23.495, -0.645, -0.822, 0.233, -61.829, -18.127, 16.235, 20.715, -0.428, 0.901, -0.616, 17.090, 32.532, -19.470, 19.254, 25.310, 19.310
8394, 0.922, 0.295, 0.618, 12.878, 27.405, 0.183, 23.498, -0.663, -0.879, 0.182, -56.885, -15.686, 21.240, 20.709, -0.277, 0.926, -0.643, 29.480, -6.226, 72.815, 19.233, 25.310, 19.310
8424, 0.814, 0.399, 0.600, 10.803, 31.372, 7.446, 23.489, -0.695, -0.810, -0.032, -68.726, -5.188, 5.798, 20.683, -0.018, 0.912, -0.540, -0.183, -23.682, 71.289, 19.248, 25.250, 19.310
8456, 0.720, 0.366, 0.604, 7.080, 32.227, 6.470, 23.507, -0.617, -0.733, -0.048, -15.625, 0.244, -13.123, 20.677, -0.050, 0.840, -0.483, -11.414, 14.648, -38.452, 19.275, 25.250, 19.310
8486, 0.691, 0.391, 0.596, 5.737, 30.640, 3.967, 23.501, -0.674, -0.678, -0.038, -20.752, 1.770, -15.564, 20.700, -0.134, 0.839, -0.416, 6.592, 1.648, -28.503, 19.254, 25.250, 19.250
8516, 0.650, 0.384, 0.584, -1.770, 29.419, 11.353, 23.492, -0.624, -0.668, -0.061, -27.405, 4.028, -12.695, 20.691, -0.059, 0.768, -0.437, 8.423, 12.085, -5.493, 19.266, 25.250, 19.250
8549, 0.595, 0.312, 0.616, -5.005, 27.344, 14.038, 23.510, -0.538, -0.649, -0.092, -19.836, 0.366, -15.625, 20.706, -0.043, 0.733, -0.421, 14.771, 24.170, -0.916, 19.278, 25.070, 19.250
8579, 0.566, 0.286, 0.635, -1.282, 24.658, 9.277, 23.516, -0.524, -0.609, -0.110, -22.278, -2.380, -10.193, 20.706, -0.071, 0.747, -0.428, 50.293, 6.104, 35.522, 19.281, 25.070, 19.310
8609, 0.526, 0.301, 0.667, 0.366, 22.461, 5.249, 23.519, -0.569, -0.614, -0.143, -35.950, -3.052, 2.441, 20.709, -0.013, 0.719, -0.499, 77.087, -17.212, 85.876, 19.254, 25.070, 19.310
8641, 0.452, 0.342, 0.712, 0.610, 21.667, 7.141, 23.501, -0.585, -0.659, -0.284, -37.231, -9.827, 3.784, 20.715, 0.176, 0.758, -0.586, 69.214, -41.992, 121.887, 19.266, 25.070, 19.310
8671, 0.433, 0.318, 0.759, -0.305, 16.846, 13.000, 23.510, -0.497, -0.707, -0.452, -19.836, -6.409, -4.883, 20.724, 0.393, 0.704, -0.631, 21.362, -11.902, 37.842, 19.257, 25.070, 19.310
8703, 0.418, 0.280, 0.762, -4.883, 7.751, 10.681, 23.516, -0.497, -0.667, -0.361, 24.109, 2.441, -23.254, 20.718, 0.164, 0.652, -0.567, -20.020, -5.432, 3.662, 19.263, 25.070, 19.310
8733, 0.440, 0.323, 0.724, -2.258, 2.197, 6.165, 23.522, -0.542, -0.654, -0.345, 31.921, 11.169, -28.870, 20.694, 0.101, 0.631, -0.464, 27.527, -7.812, 34.424, 19.284, 24.890, 19.310
8763, 0.448, 0.352, 0.756, -10.620, -1.831, 4.456, 23.516, -0.548, -0.680, -0.289, 30.090, 19.958, -33.630, 20.745, 0.213, 0.846, -0.636, 44.373, -32.715, 82.703, 19.254, 24.890, 19.270
8795, 0.481, 0.255, 0.733, -13.550, -5.249, 6.531, 23.516, -0.478, -0.688, -0.208, 34.546, 16.724, -20.203, 20.724, 0.441, 0.675, -0.713, -20.447, -9.949, -9.521, 19.224, 24.890, 19.270
8824, 0.548, 0.273, 0.735, -10.620, -13.428, 5.554, 23.507, -0.456, -0.807, -0.291, 55.786, 28.748, -32.043, 20.718, 0.135, 0.738, -0.604, -34.424, 2.747, -79.102, 19.245, 24.650, 19.270
8853, 0.592, 0.256, 0.734, -7.874, -20.996, 2.075, 23.522, -0.506, -0.780, -0.139, 77.393, 35.156, -55.786, 20.724, 0.080, 0.707, -0.671, -23.682, 48.889, -58.472, 19.281, 24.650, 19.330
8884, 0.678, 0.224, 0.702, -9.644, -24.109, -1.831, 23.525, -0.369, -0.767, -0.044, 88.196, 41.870, -57.434, 20.700, -0.031, 0.796, -0.645, -37.292, 64.209, -81.482, 19.263, 24.650, 19.330
8913, 0.740, 0.168, 0.701, -7.446, -21.912, -8.423, 23.513, -0.387, -0.810, 0.037, 66.345, 37.109, -19.470, 20.745, -0.160, 0.828, -0.621, -31.555, 47.180, -80.078, 19.257, 24.890, 19.330
8942, 0.754, 0.193, 0.689, -2.686, -17.883, -15.747, 23.537, -0.411, -0.820, 0.180, 38.452, 15.625, 22.827, 20.706, -0.240, 0.833, -0.606, 2.991, -19.348, -31.006, 19.278, 24.890, 19.330
8973, 0.784, 0.247, 0.667, 2.747, -16.663, -20.874, 23.531, -0.479, -0.807, 0.120, 19.775, 7.202, 31.250, 20.715, -0.160, 0.856, -0.609, 1.038, -50.598, 43.152, 19.260, 24.890, 19.350
9002, 0.779, 0.276, 0.668, 3.479, -13.733, -22.278, 23.531, -0.532, -0.850, 0.072, 0.244, 8.240, 37.720, 20.739, -0.003, 0.848, -0.595, 6.897, -32.715, 33.936, 19.236, 24.890, 19.350
9033, 0.790, 0.283, 0.663, 1.892, -11.902, -22.095, 23.507, -0.515, -0.876, 0.034, 0.488, 10.010, 32.959, 20.733, -0.064, 0.881, -0.604, -0.488, -7.080, -2.075, 19.266, 24.890, 19.350
9062, 0.778, 0.335, 0.649, 2.380, -11.353, -22.644, 23.525, -0.551, -0.850, 0.017, 27.161, 18.555, 16.296, 20.739, -0.109, 0.870, -0.558, -8.667, -5.798, -8.911, 19.254, 24.890, 19.310
9091, 0.782, 0.305, 0.638, -0.854, -10.193, -21.790, 23.531, -0.562, -0.828, 0.124, 26.001, 19.104, 12.939, 20.724, -0.116, 0.885, -0.545, -7.874, -19.714, -18.188, 19.245, 24.890, 19.310
9122, 0.777, 0.339, 0.641, 0.488, -8.240, -19.836, 23.531, -0.597, -0.799, 0.110, 15.991, 16.113, 16.357, 20.727, -0.103, 0.853, -0.574, -1.465, -24.353, -7.996, 19.269, 24.870, 19.310
9151, 0.759, 0.327, 0.633, 1.953, -7.629, -14.526, 23.525, -0.587, -0.804, 0.103, 9.705, 8.362, 14.404, 20.736, -0.044, 0.847, -0.532, -24.780, -15.198, -8.911, 19.251, 24.870, 19.310
9181, 0.737, 0.324, 0.634, 4.211, -7.935, -7.935, 23.552, -0.580, -0.795, 0.087, -0.122, 0.793, 15.564, 20.739, -0.079, 0.833, -0.498, -13.000, -6.042, -30.762, 19.284, 24.870, 19.310
9212, 0.708, 0.372, 0.620, 6.592, -9.155, -2.869, 23.525, -0.605, -0.779, 0.032, 2.380, -4.150, 13.794, 20.718, -0.104, 0.828, -0.424, -8.362, -17.151, -15.747, 19.275, 24.830, 19.310
9241, 0.734, 0.391, 0.582, 2.441, -10.132, 3.601, 23.525, -0.617, -0.761, 0.083, 4.639, -8.057, 8.606, 20.730, -0.125, 0.797, -0.413, 8.789, -3.723, -15.320, 19.266, 24.830, 19.310
9270, 0.740, 0.343, 0.580, 0.427, -10.620, 7.446, 23.540, -0.558, -0.710, 0.161, -5.432, -22.461, 15.930, 20.730, -0.187, 0.789, -0.408, 29.846, 15.686, -4.822, 19.278, 24.830, 19.350
9301, 0.801, 0.322, 0.621, 0.244, -10.132, 10.010, 23.525, -0.605, -0.802, 0.107, -38.330, -35.400, 45.410, 20.733, -0.216, 0.840, -0.528, 73.181, 6.042, 52.979, 19.299, 24.830, 19.350
9330, 0.829, 0.357, 0.585, -3.174, -9.216, 11.658, 23.537, -0.625, -0.800, 0.075, -31.372, -30.212, 31.982, 20.712, -0.099, 0.880, -0.590, 79.468, 13.428, 52.612, 19.284, 24.870, 19.350
9361, 0.869, 0.298, 0.647, -10.132, -4.639, 13.672, 23.540, -0.647, -0.921, 0.064, -23.071, -23.682, 11.414, 20.730, -0.154, 0.907, -0.743, 45.532, -8.545, -9.949, 19.263, 24.870, 19.330
9390, 0.858, 0.224, 0.662, -9.033, -2.808, 16.541, 23.549, -0.578, -0.862, 0.113, 1.709, -14.282, -2.319, 20.718, -0.092, 0.841, -0.766, 19.043, -7.141, -16.418, 19.272, 24.870, 19.330
9419, 0.864, 0.215, 0.637, -2.625, -2.197, 15.015, 23.531, -0.545, -0.847, 0.063, 1.709, -10.071, -12.756, 20.742, -0.142, 0.823, -0.769, 7.996, 6.104, -40.955, 19.269, 24.810, 19.330
9450, 0.860, 0.214, 0.633, 3.723, 1.099, 12.085, 23.546, -0.521, -0.842, 0.090, 10.437, -4.639, -9.094, 20.733, -0.164, 0.804, -0.764, -16.724, 22.705, -56.702, 19.242, 24.810, 19.330
9480, 0.877, 0.207, 0.622, 6.226, 2.441, 8.057, 23.525, -0.531, -0.835, 0.140, 8.301, -5.310, -0.732, 20.745, -0.220, 0.823, -0.724, -40.588, 33.081, -80.078, 19.251, 24.810, 19.330
9509, 0.871, 0.217, 0.614, 9.888, 5.554, 5.249, 23.546, -0.556, -0.841, 0.131, 8.606, -1.221, -0.183, 20.745, -0.283, 0.805, -0.663, -49.133, 27.832, -85.815, 19.263, 24.830, 19.330
9540, 0.862, 0.241, 0.610, 11.536, 8.728, 1.892, 23.558, -0.557, -0.829, 0.137, 14.526, 3.967, -4.944, 20.745, -0.349, 0.780, -0.580, -46.753, 10.620, -63.782, 19.278, 24.830, 19.330
9569, 0.863, 0.268, 0.617, 9.644, 8.667, -0.488, 23.531, -0.565, -0.820, 0.151, 11.719, 7.019, -2.808, 20.754, -0.380, 0.765, -0.517, -24.963, 1.282, -36.499, 19.284, 24.830, 19.330
9598, 0.859, 0.281, 0.625, 6.348, 8.362, -3.967, 23.564, -0.598, -0.833, 0.136, -1.465, 3.784, 6.165, 20.727, -0.377, 0.807, -0.507, 26.245, -3.418, 11.963, 19.245, 24.890, 19.330
9630, 0.838, 0.319, 0.638, 0.488, 8.423, -3.845, 23.555, -0.616, -0.847, 0.089, 0.122, 7.507, 0.366, 20.721, -0.290, 0.820, -0.577, 60.974, 5.371, 62.378, 19.254, 24.890, 19.330
9659, 0.845, 0.288, 0.625, -2.686, 7.629, -3.723, 23.537, -0.594, -0.827, 0.137, 3.662, 4.517, 0.061, 20.721, -0.190, 0.840, -0.658, 60.120, 32.837, 51.758, 19.272, 24.890, 19.350
9688, 0.842, 0.286, 0.638, -2.625, 8.179, -2.869, 23.546, -0.606, -0.840, 0.105, 0.244, 6.348, -0.366, 20.715, -0.181, 0.843, -0.702, 29.297, 37.598, -1.709, 19.230, 24.890, 19.350
9719, 0.837, 0.271, 0.641, -1.282, 10.010, -2.502, 23.543, -0.596, -0.852, 0.087, 5.310, 13.062, -13.245, 20.730, -0.215, 0.844, -0.718, -19.897, -1.648, -28.564, 19.257, 24.930, 19.350
9748, 0.816, 0.300, 0.630, -0.977, 10.254, -2.747, 23.561, -0.587, -0.824, 0.085, 20.447, 17.944, -22.339, 20.724, -0.227, 0.824, -0.570, -40.344, -25.452, -52.612, 19.251, 24.930, 19.350
9780, 0.832, 0.270, 0.632, -0.854, 7.935, -2.075, 23.555, -0.574, -0.823, 0.170, 16.418, 8.972, -11.597, 20.721, -0.302, 0.798, -0.573, -15.015, -19.775, -53.040, 19.239, 24.930, 19.350
9809, 0.808, 0.292, 0.633, 1.221, 9.277, -1.099, 23.564, -0.547, -0.849, 0.091, 12.573, 7.629, -14.587, 20.730, -0.304, 0.806, -0.586, 9.216, -2.930, -8.606, 19.266, 24.930, 19.350
9838, 0.799, 0.290, 0.638, 2.502, 10.315, -1.526, 23.555, -0.571, -0.814, 0.149, 15.442, 5.615, -8.606, 20.745, -0.173, 0.881, -0.645, 3.967, 31.372, 2.014, 19.269, 24.930, 19.330
9869, 0.758, 0.298, 0.649, 2.869, 7.935, 0.061, 23.546, -0.556, -0.813, 0.144, 1.892, -5.432, -1.831, 20.724, -0.171, 0.801, -0.535, -13.794, 29.236, -70.129, 19.290, 24.930, 19.330
9898, 0.757, 0.307, 0.653, 3.967, 2.747, 2.075, 23.558, -0.559, -0.807, 0.076, -6.287, -5.188, 3.296, 20.760, -0.403, 0.731, -0.551, -18.677, 15.381, -91.797, 19.275, 24.990, 19.330
9927, 0.758, 0.291, 0.639, 0.793, 0.183, 1.831, 23.561, -0.540, -0.812, 0.054, -5.493, -3.906, -0.549, 20.748, -0.447, 0.732, -0.466, -1.526, -34.851, -24.353, 19.284, 24.990, 19.330
9959, 0.721, 0.320, 0.651, -2.502, -1.465, -0.671, 23.555, -0.531, -0.829, 0.004, 9.521, 1.099, -8.972, 20.730, -0.288, 0.749, -0.514, 39.001, -29.358, 30.884, 19.266, 24.990, 19.350
9988, 0.729, 0.310, 0.658, -7.141, -3.113, -3.357, 23.537, -0.541, -0.837, 0.028, 23.376, 6.287, -17.212, 20.742, -0.245, 0.784, -0.587, 44.128, 20.142, 30.945, 19.275, 24.990, 19.350
10017, 0.705, 0.279, 0.681, -8.423, -4.944, -7.019, 23.576, -0.460, -0.888, -0.063, 31.555, 12.634, -42.786, 20.718, -0.165, 0.797, -0.658, 19.104, 27.039, -0.854, 19.284, 25.190, 19.350
10048, 0.727, 0.250, 0.654, -6.714, -6.409, -11.536, 23.558, -0.464, -0.792, 0.078, 61.890, 17.578, -40.039, 20.751, -0.330, 0.730, -0.615, -10.315, 14.893, -62.622, 19.269, 25.190, 19.330
10077, 0.749, 0.244, 0.625, -5.554, -12.634, -10.925, 23.543, -0.460, -0.703, 0.333, 20.813, 19.592, -9.155, 20.730, -0.466, 0.658, -0.535, -6.531, -48.828, -19.836, 19.290, 25.190, 19.330
10109, 0.768, 0.239, 0.566, -4.089, -17.212, -9.705, 23.588, -0.402, -0.651, 0.275, -28.931, -17.517, 36.621, 20.751, -0.395, 0.687, -0.519, 39.734, -64.026, 46.387, 19.269, 25.130, 19.330
10139, 0.795, 0.261, 0.618, -4.456, -26.978, -11.841, 23.558, -0.456, -0.660, 0.298, -73.120, -52.002, 104.553, 20.763, -0.351, 0.656, -0.543, 76.050, -12.939, 64.636, 19.260, 25.130, 19.330
10169, 0.813, 0.246, 0.609, -5.188, -19.043, -14.282, 23.564, -0.508, -0.711, 0.161, -113.403, -81.421, 163.147, 20.727, -0.439, 0.634, -0.568, 132.629, 17.700, 125.488, 19.302, 25.130, 19.330
10201, 0.798, 0.285, 0.606, 1.160, -12.146, -17.761, 23.582, -0.842, -0.764, -0.068, -10.254, -76.050, 75.073, 20.751, -0.438, 0.504, -0.562, 170.227, -15.930, 258.789, 19.278, 25.130, 19.330
10231, 0.812, 0.378, 0.588, 0.549, 0.244, -17.334, 23.546, -0.826, -0.879, 0.275, -100.281, -13.733, 94.910, 20.769, -0.092, 0.747, -0.839, 128.784, -20.996, 190.491, 19.293, 25.130, 19.350
10261, 0.802, 0.413, 0.594, -7.629, 6.897, -12.268, 23.573, -0.819, -0.555, 0.049, -30.090, -30.579, 48.706, 20.742, -0.085, 0.756, -0.832, 52.368, -98.328, 29.724, 19.284, 25.130, 19.350
10293, 0.789, 0.342, 0.613, -7.568, 14.343, -8.179, 23.558, -0.663, -0.754, -0.073, -85.083, -35.461, 47.241, 20.763, -0.094, 0.722, -0.972, -72.998, -179.810, 22.644, 19.281, 25.230, 19.350
10323, 0.744, 0.340, 0.623, -3.723, 18.127, -11.169, 23.552, -0.742, -0.702, -0.062, -53.772, -25.635, 32.104, 20.760, -0.324, 0.671, -0.707, -18.433, -183.838, -28.870, 19.293, 25.230, 19.350
10355, 0.731, 0.371, 0.626, 6.653, 10.437, -7.202, 23.561, -0.738, -0.671, -0.030, -26.123, -8.911, 13.428, 20.745, 0.008, 0.985, -0.683, -109.802, -112.976, -29.785, 19.278, 25.230, 19.350
10385, 0.735, 0.420, 0.620, 7.263, 11.169, -3.113, 23.561, -0.774, -0.665, -0.035, 5.005, 9.399, 7.263, 20.745, -0.050, 0.858, -0.652, -25.208, -101.440, -16.357, 19.293, 25.410, 19.350
10415, 0.754, 0.459, 0.613, 6.531, 8.301, -2.136, 23.564, -0.835, -0.640, -0.001, 29.419, 11.475, -9.033, 20.751, -0.239, 0.902, -0.497, -40.771, -82.458, 3.540, 19.305, 25.410, 19.350
10447, 0.809, 0.401, 0.621, -4.639, 7.446, 0.427, 23.552, -0.800, -0.667, 0.085, 29.968, 16.479, -28.137, 20.760, -0.508, 0.757, -0.511, 26.733, 44.434, 20.142, 19.293, 25.410, 19.330
10477, 0.830, 0.366, 0.628, -9.644, 4.944, -1.770, 23.579, -0.734, -0.726, 0.076, 18.494, 18.311, -14.465, 20.763, -0.493, 0.753, -0.474, -7.263, 18.188, 12.085, 19.290, 25.410, 19.330
10507, 0.831, 0.325, 0.633, -18.066, 4.944, -8.667, 23.567, -0.715, -0.702, 0.107, 15.808, 11.719, 0.488, 20.745, -0.517, 0.768, -0.530, -1.160, 10.620, 16.846, 19.314, 25.430, 19.330
10539, 0.824, 0.289, 0.641, -13.306, 5.127, -15.625, 23.555, -0.684, -0.687, 0.108, 12.085, 12.939, 5.310, 20.775, -0.436, 0.817, -0.601, -15.015, -62.500, 4.395, 19.287, 25.430, 19.350
10569, 0.821, 0.291, 0.634, -5.127, 5.676, -21.606, 23.579, -0.693, -0.675, 0.101, 12.817, 15.442, 8.789, 20.757, -0.393, 0.869, -0.606, -7.324, -79.956, -3.357, 19.299, 25.430, 19.350
10599, 0.785, 0.333, 0.635, 3.479, 7.751, -26.733, 23.555, -0.721, -0.658, 0.101, 9.277, 10.437, 26.245, 20.751, -0.381, 0.819, -0.527, 0.854, -87.891, 13.428, 19.293, 26.230, 19.350
10631, 0.743, 0.416, 0.635, 5.554, 7.019, -27.222, 23.561, -0.799, -0.645, 0.050, 7.568, 11.292, 24.902, 20.763, -0.327, 0.833, -0.460, 6.409, -25.269, 19.653, 19.302, 26.230, 19.310
10661, 0.729, 0.476, 0.615, 2.258, 8.362, -25.452, 23.561, -0.848, -0.629, 0.022, 19.348, 13.550, 11.108, 20.763, -0.366, 0.853, -0.456, 9.216, -10.681, 21.729, 19.311, 26.230, 19.310
10693, 0.697, 0.451, 0.635, -1.282, 5.066, -19.958, 23.558, -0.794, -0.624, 0.038, 26.611, 14.648, -9.949, 20.751, -0.313, 0.828, -0.416, 8.606, -0.488, 10.071, 19.296, 26.650, 19.310
10723, 0.700, 0.441, 0.643, -4.578, 1.648, -16.968, 23.585, -0.779, -0.633, 0.038, 17.456, 8.179, -1.587, 20.781, -0.377, 0.819, -0.444, 12.634, -10.925, 3.174, 19.341, 26.650, 19.370
10752, 0.676, 0.425, 0.639, -8.057, -1.282, -16.296, 23.576, -0.758, -0.621, 0.031, 12.451, 4.272, 5.493, 20.751, -0.377, 0.777, -0.492, 12.573, -3.357, 12.878, 19.317, 26.650, 19.370
10784, 0.679, 0.360, 0.655, -7.568, 0.793, -16.357, 23.567, -0.727, -0.615, -0.005, 9.460, 8.850, -0.427, 20.766, -0.319, 0.825, -0.532, 3.418, 1.343, 18.066, 19.308, 26.830, 19.370
10814, 0.663, 0.375, 0.658, 3.601, 1.953, -14.465, 23.561, -0.812, -0.652, 0.081, 21.606, 16.113, -29.541, 20.757, -0.263, 0.862, -0.541, -9.705, -7.690, 7.446, 19.323, 26.830, 19.350
10844, 0.627, 0.404, 0.643, 8.667, 2.319, -11.963, 23.576, -0.708, -0.704, -0.174, 74.402, 36.682, -83.008, 20.766, -0.236, 0.850, -0.485, -10.498, -14.221, -6.042, 19.311, 26.830, 19.350
10876, 0.648, 0.524, 0.618, 9.155, 0.000, -13.184, 23.570, -0.770, -0.470, 0.106, 64.453, 30.762, -50.537, 20.757, -0.282, 0.794, -0.354, -2.563, -2.747, 14.648, 19.296, 26.790, 19.350
10906, 0.687, 0.493, 0.609, 0.549, -3.540, -6.531, 23.570, -0.763, -0.547, 0.324, 41.931, 21.729, -15.930, 20.748, -0.240, 0.855, -0.446, 11.902, 46.753, 0.427, 19.314, 26.790, 19.350
10936, 0.697, 0.477, 0.582, 1.648, -2.808, 4.272, 23.582, -0.781, -0.610, 0.215, -0.610, -5.310, 11.230, 20.772, -0.365, 0.783, -0.359, 19.531, 53.528, -9.827, 19.314, 26.790, 19.370
10968, 0.684, 0.468, 0.606, -0.732, -4.883, 13.733, 23.555, -0.705, -0.642, 0.096, -23.987, -13.428, 12.634, 20.757, -0.425, 0.758, -0.390, 9.338, 21.484, -10.132, 19.329, 26.790, 19.370
10998, 0.675, 0.419, 0.635, 0.183, -4.028, 12.573, 23.570, -0.637, -0.674, 0.023, -20.325, -23.987, 13.611, 20.748, -0.286, 0.766, -0.498, 3.845, 6.165, -21.545, 19.311, 26.730, 19.370
11028, 0.676, 0.387, 0.630, 2.075, -2.991, 10.925, 23.579, -0.644, -0.631, 0.063, -16.113, -26.367, 24.780, 20.763, -0.383, 0.794, -0.502, 11.230, 6.592, -23.926, 19.320, 26.730, 19.350
11060, 0.687, 0.444, 0.620, 5.066, 2.991, 6.226, 23.573, -0.794, -0.709, -0.011, -22.095, -12.573, 12.695, 20.781, -0.346, 0.808, -0.471, 1.709, 6.287, -10.315, 19.314, 26.730, 19.350
11090, 0.693, 0.432, 0.642, 0.061, 1.343, 8.118, 23.573, -0.706, -0.692, 0.046, 9.399, -4.761, -10.986, 20.778, -0.353, 0.803, -0.459, 2.686, 4.761, -8.606, 19.326, 26.710, 19.350
11122, 0.735, 0.446, 0.622, -0.610, 1.160, 5.859, 23.573, -0.712, -0.696, 0.055, 19.409, -3.418, -14.709, 20.763, -0.412, 0.834, -0.451, 8.667, 4.150, -11.108, 19.314, 26.710, 19.350
11152, 0.760, 0.466, 0.609, -1.526, 2.136, 2.930, 23.567, -0.752, -0.676, 0.107, 19.958, 3.235, -21.973, 20.778, -0.441, 0.853, -0.430, 8.301, 2.075, -6.531, 19.311, 26.710, 19.350
11182, 0.812, 0.476, 0.611, -5.188, 3.723, -1.526, 23.594, -0.758, -0.742, 0.122, 30.457, 11.169, -23.926, 20.751, -0.465, 0.896, -0.441, 12.634, -4.456, -1.892, 19.311, 26.710, 19.350
11214, 0.803, 0.454, 0.637, -7.568, 2.991, -3.662, 23.558, -0.766, -0.818, 0.067, 44.250, 27.893, -54.077, 20.790, -0.471, 0.888, -0.478, 18.616, -9.583, 2.319, 19.308, 26.710, 19.330
11244, 0.810, 0.446, 0.631, -8.667, 3.479, -8.240, 23.588, -0.712, -0.759, 0.132, 65.002, 45.166, -47.913, 20.772, -0.453, 0.881, -0.458, 18.555, -10.193, 8.972, 19.341, 26.710, 19.330
11274, 0.795, 0.494, 0.618, -9.521, 0.305, -11.719, 23.564, -0.645, -0.699, 0.195, 66.833, 56.641, -39.673, 20.781, -0.450, 0.906, -0.415, 18.799, -19.348, 23.437, 19.326, 26.650, 19.330
11306, 0.778, 0.482, 0.599, -9.583, -0.183, -9.460, 23.585, -0.757, -0.719, 0.277, 57.922, 36.133, -7.080, 20.781, -0.312, 0.963, -0.469, 2.991, 3.967, 38.757, 19.314, 26.650, 19.370
11336, 0.764, 0.520, 0.604, -5.371, 1.587, -8.362, 23.588, -0.783, -0.668, 0.329, 22.461, 26.367, -9.583, 20.790, -0.248, 0.937, -0.460, 39.673, 24.963, 39.429, 19.323, 26.650, 19.370
11366, 0.741, 0.488, 0.594, -4.456, 0.427, -0.366, 23.579, -0.733, -0.689, 0.255, 21.057, 1.831, 1.160, 20.772, -0.223, 0.961, -0.571, 89.539, 81.177, 23.560, 19.305, 26.650, 19.370
11398, 0.759, 0.502, 0.569, -0.977, -2.075, 2.197, 23.585, -0.725, -0.637, 0.304, -23.193, -5.493, 20.752, 20.784, -0.185, 0.825, -0.656, 48.035, 98.999, 15.503, 19.338, 26.650, 19.370
11428, 0.761, 0.487, 0.578, -0.244, -9.949, 7.935, 23.594, -0.699, -0.636, 0.273, -55.115, -25.391, 44.678, 20.790, -0.313, 0.800, -0.579, 58.838, 175.049, -11.658, 19.320, 26.650, 19.330
11460, 0.748, 0.424, 0.600, -4.822, -5.249, 5.920, 23.588, -0.725, -0.759, 0.064, -66.162, -30.823, 37.842, 20.793, -0.686, 0.689, -0.442, 9.155, 108.643, -48.584, 19.335, 26.650, 19.330
11490, 0.705, 0.460, 0.614, -14.771, -1.953, -0.488, 23.585, -0.645, -0.790, -0.193, -15.930, -1.465, -7.141, 20.778, -0.667, 0.680, -0.434, 36.743, -15.747, 37.781, 19.335, 24.470, 19.330
11520, 0.682, 0.390, 0.621, -23.865, -1.404, -9.399, 23.594, -0.636, -0.697, 0.047, 31.555, 20.142, -19.836, 20.754, -0.169, 0.647, -0.688, 20.935, -45.898, 49.194, 19.335, 24.470, 19.370
11552, 0.717, 0.365, 0.618, -26.184, -4.700, -16.968, 23.594, -0.575, -0.690, 0.149, 9.644, 20.447, -8.423, 20.778, -0.353, 0.737, -0.631, -9.705, -42.725, -16.357, 19.326, 24.470, 19.370
11582, 0.688, 0.368, 0.649, -24.475, -2.625, -22.400, 23.582, -0.648, -0.678, 0.086, 2.075, 20.325, 12.024, 20.778, -0.376, 0.647, -0.666, 30.457, -99.426, 11.292, 19.335, 24.530, 19.370
11612, 0.665, 0.375, 0.637, -19.958, -1.160, -26.245, 23.600, -0.649, -0.687, -0.002, 4.150, 27.832, 9.460, 20.778, -0.380, 0.802, -0.612, -55.481, -82.031, -38.269, 19.308, 24.530, 19.370
11645, 0.640, 0.389, 0.632, -19.592, -0.549, -33.142, 23.606, -0.662, -0.675, -0.023, 36.377, 31.250, -6.348, 20.769, -0.147, 0.761, -0.756, -11.230, -159.302, -15.991, 19.311, 24.530, 19.370
11675, 0.587, 0.452, 0.653, -13.123, -5.127, -32.959, 23.591, -0.683, -0.672, -0.031, 42.053, 33.813, -19.287, 20.769, -0.203, 0.711, -0.400, -89.600, -239.380, -9.155, 19.323, 26.490, 19.370
11707, 0.582, 0.546, 0.633, -13.916, -8.667, -30.212, 23.606, -0.776, -0.585, 0.066, 32.654, 29.968, -6.348, 20.787, 0.045, 0.969, -0.578, -2.380, -88.562, 35.583, 19.323, 26.490, 19.370
11737, 0.577, 0.511, 0.608, -18.616, -10.986, -19.287, 23.582, -0.833, -0.564, 0.165, 30.884, 17.334, 3.052, 20.772, -0.112, 0.884, -0.421, 11.597, -16.296, -8.972, 19.326, 26.490, 19.370
11767, 0.617, 0.531, 0.602, -13.489, -13.367, -3.296, 23.585, -0.795, -0.635, 0.123, -2.563, 6.470, 0.244, 20.790, -0.283, 0.828, -0.362, 19.226, -1.221, -3.906, 19.320, 26.790, 19.370
11800, 0.620, 0.491, 0.609, -15.991, -18.433, 11.658, 23.603, -0.724, -0.630, 0.075, 3.967, -5.188, -6.287, 20.763, -0.304, 0.778, -0.436, 10.315, -5.615, -12.146, 19.338, 26.790, 19.350
11830, 0.637, 0.461, 0.613, -15.015, -21.423, 15.686, 23.597, -0.697, -0.660, 0.090, 6.042, -14.465, -6.348, 20.775, -0.356, 0.749, -0.391, 11.597, -6.042, -27.405, 19.344, 26.790, 19.350
11860, 0.665, 0.410, 0.607, -18.738, -25.757, 19.226, 23.588, -0.614, -0.603, 0.108, -3.723, -23.193, 5.981, 20.754, -0.540, 0.689, -0.409, -5.676, 10.925, -16.785, 19.335, 26.770, 19.350
11892, 0.689, 0.360, 0.593, -20.935, -27.039, 17.761, 23.600, -0.595, -0.552, 0.134, -5.737, -36.377, 31.128, 20.787, -0.568, 0.611, -0.369, -6.409, -41.016, 23.071, 19.320, 26.770, 19.350
11922, 0.727, 0.294, 0.616, -20.081, -25.696, 18.127, 23.591, -0.659, -0.575, 0.140, -22.339, -33.386, 60.791, 20.754, -0.466, 0.751, -0.407, 5.737, -101.379, 6.714, 19.329, 26.770, 19.350
11952, 0.747, 0.278, 0.620, -15.625, -20.996, 16.479, 23.600, -0.633, -0.828, 0.033, 6.592, -31.921, 55.969, 20.772, -0.494, 0.760, -0.519, 38.635, 15.930, 14.648, 19.338, 26.770, 19.350
11985, 0.803, 0.248, 0.589, -9.460, -15.747, 8.972, 23.618, -0.585, -0.634, 0.333, 0.854, -20.874, 4.578, 20.787, -0.400, 0.861, -0.548, 9.766, 19.287, 19.470, 19.338, 26.770, 19.350
12015, 0.831, 0.254, 0.570, -1.648, -10.620, 7.751, 23.603, -0.707, -0.520, 0.208, -46.814, -34.851, 21.973, 20.790, -0.427, 0.829, -0.480, -6.409, 2.747, 9.216, 19.320, 26.770, 19.370
12047, 0.819, 0.285, 0.581, 4.822, -7.690, 6.836, 23.606, -0.620, -0.918, 0.055, -27.466, -23.499, 37.415, 20.760, -0.497, 0.765, -0.395, -6.897, -1.648, -4.883, 19.317, 26.770, 19.370
12077, 0.811, 0.312, 0.591, 5.066, -6.042, 4.761, 23.603, -0.702, -0.558, 0.188, -32.593, -30.090, 35.522, 20.766, -0.508, 0.763, -0.391, 7.751, 3.784, -0.854, 19.323, 26.710, 19.370
12107, 0.814, 0.348, 0.584, 2.869, -6.653, 1.099, 23.588, -0.753, -0.688, 0.125, -32.104, -28.564, 43.579, 20.790, -0.461, 0.823, -0.379, 12.756, -3.235, 2.441, 19.329, 26.710, 19.370
12139, 0.848, 0.376, 0.561, -2.380, -5.493, 2.258, 23.594, -0.799, -0.657, 0.126, -26.794, -20.142, 21.423, 20.781, -0.427, 0.832, -0.371, 7.507, -3.845, -3.052, 19.311, 26.710, 19.370
12168, 0.850, 0.373, 0.566, -5.798, -2.380, 5.310, 23.606, -0.809, -0.633, 0.163, -21.057, -8.362, -1.770, 20.772, -0.473, 0.818, -0.373, 9.888, -1.526, -6.287, 19.323, 26.670, 19.370
12197, 0.844, 0.344, 0.568, -7.996, 0.610, 6.409, 23.609, -0.767, -0.624, 0.184, -21.545, -8.545, -9.888, 20.802, -0.481, 0.832, -0.386, 13.428, 2.136, -3.479, 19.332, 26.670, 19.350
12228, 0.848, 0.327, 0.574, -5.066, 1.465, 5.005, 23.606, -0.742, -0.646, 0.146, -23.621, -9.033, -4.639, 20.787, -0.471, 0.821, -0.416, 13.489, 6.042, 0.122, 19.332, 26.670, 19.350
12257, 0.790, 0.310, 0.562, -0.977, 1.526, 8.301, 23.621, -0.742, -0.626, 0.133, -14.709, -8.057, -5.676, 20.751, -0.455, 0.823, -0.424, 0.793, 9.949, 1.770, 19.374, 26.650, 19.350
12286, 0.818, 0.326, 0.547, 1.709, -2.747, 7.629, 23.579, -0.738, -0.647, 0.140, -3.174, -4.700, -7.568, 20.796, -0.470, 0.818, -0.368, -8.606, 7.690, 0.244, 19.341, 26.650, 19.370
12317, 0.839, 0.347, 0.551, 2.136, -5.554, 6.653, 23.597, -0.762, -0.638, 0.167, 1.221, -6.104, -5.493, 20.784, -0.492, 0.839, -0.345, -2.930, 2.380, -5.066, 19.356, 26.650, 19.370
12346, 0.851, 0.377, 0.547, 0.305, -9.094, 4.761, 23.618, -0.820, -0.645, 0.192, -3.357, -9.033, -2.869, 20.790, -0.503, 0.870, -0.342, -0.061, -4.761, -7.141, 19.335, 26.710, 19.370
12377, 0.903, 0.371, 0.527, -3.357, -14.587, 6.287, 23.600, -0.801, -0.681, 0.212, -1.587, -11.658, -7.629, 20.793, -0.527, 0.860, -0.305, 1.404, -4.395, -3.540, 19.350, 26.710, 19.370
12406, 0.922, 0.354, 0.523, -5.432, -15.564, 8.972, 23.609, -0.766, -0.671, 0.209, 2.014, -11.230, -10.254, 20.784, -0.526, 0.858, -0.328, 9.705, -8.850, -8.362, 19.350, 26.710, 19.370
12436, 0.917, 0.306, 0.535, -5.554, -14.404, 8.728, 23.621, -0.736, -0.690, 0.219, 4.028, -9.766, -7.751, 20.784, -0.534, 0.853, -0.383, 11.414, -10.132, -10.498, 19.347, 26.710, 19.370
12467, 0.915, 0.275, 0.537, -1.465, -10.010, 7.080, 23.615, -0.715, -0.677, 0.208, 2.075, -7.629, -7.874, 20.784, -0.543, 0.815, -0.388, 3.662, -4.700, -7.690, 19.335, 26.710, 19.370
12496, 0.898, 0.271, 0.540, 1.648, -4.883, 4.272, 23.609, -0.711, -0.666, 0.211, -6.958, -6.348, -2.502, 20.799, -0.509, 0.805, -0.394, 4.883, 0.000, -4.089, 19.338, 26.710, 19.390
12525, 0.870, 0.287, 0.528, 5.859, 0.854, 2.747, 23.612, -0.707, -0.641, 0.179, -14.587, -6.165, -0.061, 20.802, -0.474, 0.803, -0.378, -3.540, 7.080, 1.160, 19.350, 26.710, 19.390
12556, 0.857, 0.319, 0.514, 8.118, 5.371, 2.869, 23.612, -0.717, -0.634, 0.163, -17.822, -7.080, 4.700, 20.805, -0.444, 0.791, -0.329, -4.028, 12.268, 1.648, 19.341, 26.650, 19.390
12585, 0.834, 0.320, 0.523, 7.019, 10.071, 5.371, 23.615, -0.734, -0.631, 0.152, -16.663, -7.202, 9.277, 20.799, -0.410, 0.788, -0.355, 9.216, 10.559, -9.766, 19.350, 26.650, 19.370
12614, 0.798, 0.336, 0.540, 6.714, 12.939, 8.423, 23.603, -0.758, -0.590, 0.155, -23.010, -8.606, 7.874, 20.805, -0.404, 0.778, -0.354, 15.320, 9.094, -20.325, 19.347, 26.650, 19.370
12645, 0.793, 0.354, 0.543, 5.615, 15.808, 11.597, 23.621, -0.779, -0.603, 0.128, -29.053, -8.850, 6.409, 20.796, -0.386, 0.784, -0.371, 17.517, 10.681, -25.085, 19.347, 26.670, 19.370
12674, 0.788, 0.331, 0.552, 4.150, 19.165, 18.250, 23.618, -0.742, -0.620, 0.075, -23.376, -4.211, -2.930, 20.805, -0.375, 0.763, -0.379, 20.081, 12.329, -34.424, 19.362, 26.670, 19.370
12703, 0.776, 0.308, 0.570, 4.211, 22.705, 23.132, 23.627, -0.724, -0.622, 0.062, -10.864, -0.427, -8.606, 20.787, -0.418, 0.739, -0.421, 25.024, 11.414, -48.462, 19.353, 26.670, 19.350
12734, 0.742, 0.245, 0.586, 5.615, 24.109, 25.208, 23.609, -0.688, -0.609, 0.059, -6.897, 1.831, -14.099, 20.793, -0.494, 0.709, -0.492, 16.174, 17.822, -44.739, 19.353, 26.670, 19.350
12763, 0.732, 0.224, 0.591, 9.888, 20.325, 25.391, 23.612, -0.669, -0.632, 0.044, -3.784, -2.075, -18.555, 20.781, -0.517, 0.672, -0.463, -3.845, 25.146, -29.724, 19.353, 26.650, 19.350
12807, 0.726, 0.229, 0.595, 12.939, 10.376, 22.278, 23.627, -0.646, -0.651, 0.038, 3.845, -8.911, -10.681, 20.817, -0.538, 0.659, -0.422, -6.714, 16.052, -23.621, 19.362, 26.650, 19.390
12840, 0.733, 0.231, 0.588, 14.282, 1.587, 20.081, 23.636, -0.673, -0.648, 0.061, 3.723, -17.212, -9.521, 20.805, -0.562, 0.690, -0.422, -5.371, 8.728, -25.757, 19.332, 26.670, 19.390
12873, 0.762, 0.242, 0.585, 10.620, -11.414, 16.846, 23.630, -0.685, -0.699, 0.058, 10.193, -24.780, -6.104, 20.802, -0.605, 0.663, -0.387, -10.803, -4.211, -23.621, 19.365, 26.670, 19.390
12908, 0.854, 0.192, 0.566, 3.906, -20.996, 14.282, 23.639, -0.639, -0.739, 0.127, 18.677, -19.470, -15.869, 20.775, -0.693, 0.662, -0.374, -0.122, -14.648, -24.963, 19.368, 26.670, 19.370
12941, 0.914, 0.172, 0.548, 1.587, -24.109, 8.667, 23.618, -0.616, -0.762, 0.182, 24.719, -18.066, -6.531, 20.796, -0.747, 0.679, -0.384, 3.967, -17.212, -17.639, 19.368, 26.650, 19.370
12974, 0.955, 0.156, 0.525, 3.723, -24.597, 0.366, 23.618, -0.630, -0.755, 0.256, 29.358, -14.099, -1.526, 20.787, -0.729, 0.706, -0.388, 2.258, -17.090, -10.864, 19.371, 26.650, 19.390
13009, 0.964, 0.237, 0.504, 12.634, -21.423, -3.662, 23.621, -0.716, -0.669, 0.385, 19.775, -19.653, 6.470, 20.805, -0.618, 0.776, -0.388, -13.794, -12.085, -7.202, 19.356, 26.650, 19.390
13042, 0.969, 0.297, 0.478, 23.682, -12.695, 4.028, 23.642, -0.775, -0.688, 0.379, -5.432, -30.151, 14.038, 20.814, -0.571, 0.756, -0.318, -23.865, 0.549, -12.878, 19.365, 26.650, 19.390
13077, 0.969, 0.310, 0.464, 24.109, -5.615, 18.738, 23.606, -0.759, -0.691, 0.315, -12.695, -31.311, 3.723, 20.814, -0.629, 0.715, -0.275, -22.034, 12.085, -16.602, 19.362, 26.650, 19.370
13110, 0.930, 0.274, 0.483, 21.851, 0.488, 23.804, 23.600, -0.694, -0.678, 0.259, -17.517, -27.466, -3.479, 20.793, -0.674, 0.682, -0.289, -11.292, 18.188, -19.592, 19.344, 26.650, 19.370
13143, 0.929, 0.253, 0.487, 16.785, 5.554, 21.423, 23.606, -0.669, -0.692, 0.232, -23.865, -22.827, -0.122, 20.790, -0.689, 0.678, -0.289, -4.150, 18.921, -18.433, 19.359, 26.670, 19.370
13178, 0.908, 0.252, 0.500, 10.010, 10.193, 16.846, 23.630, -0.668, -0.691, 0.201, -29.236, -14.709, 2.380, 20.835, -0.674, 0.664, -0.302, 1.099, 18.799, -13.123, 19.377, 26.670, 19.370
13211, 0.899, 0.222, 0.497, 5.920, 14.038, 11.292, 23.639, -0.652, -0.668, 0.227, -29.541, -9.338, -3.052, 20.820, -0.666, 0.672, -0.333, 8.179, 19.531, -9.521, 19.356, 26.670, 19.370
13244, 0.890, 0.229, 0.504, 6.165, 18.005, 9.033, 23.633, -0.658, -0.645, 0.243, -33.081, -6.775, 5.066, 20.826, -0.628, 0.682, -0.351, 6.165, 22.644, -4.211, 19.377, 26.650, 19.370
13279, 0.863, 0.238, 0.513, 9.216, 21.912, 8.240, 23.621, -0.670, -0.644, 0.213, -48.218, -10.559, 14.648, 20.817, -0.610, 0.679, -0.348, 6.531, 24.475, -4.578, 19.353, 26.650, 19.350
13312, 0.860, 0.248, 0.524, 9.766, 22.278, 7.629, 23.648, -0.690, -0.697, 0.138, -49.316, -16.418, 19.714, 20.775, -0.622, 0.682, -0.367, 9.155, 23.437, -7.568, 19.365, 26.650, 19.350
13345, 0.869, 0.185, 0.533, 9.460, 19.531, 10.193, 23.672, -0.647, -0.741, 0.104, -30.701, -6.287, 5.493, 20.826, -0.670, 0.661, -0.407, 4.456, 24.414, -8.057, 19.368, 26.650, 19.350
13381, 0.846, 0.161, 0.546, 15.808, 15.564, 5.676, 23.648, -0.630, -0.691, 0.153, -6.958, -2.747, 3.296, 20.817, -0.687, 0.648, -0.409, -6.958, 21.729, 0.488, 19.362, 26.650, 19.390
13414, 0.836, 0.194, 0.546, 19.287, 8.118, 1.343, 23.657, -0.663, -0.689, 0.161, -14.587, -14.465, 17.334, 20.811, -0.649, 0.667, -0.389, -12.634, 13.550, 0.671, 19.347, 26.650, 19.390
13447, 0.847, 0.216, 0.532, 23.621, 2.991, 0.854, 23.636, -0.683, -0.698, 0.148, -2.258, -14.893, 13.794, 20.823, -0.654, 0.659, -0.376, -19.592, 16.052, 2.625, 19.347, 26.650, 19.390
13482, 0.856, 0.264, 0.523, 24.597, -1.221, -0.244, 23.636, -0.701, -0.681, 0.172, 7.202, -15.808, 12.634, 20.814, -0.638, 0.695, -0.332, -21.179, 8.972, 4.944, 19.356, 26.650, 19.370
13515, 0.892, 0.282, 0.511, 22.095, -0.854, -0.916, 23.645, -0.729, -0.668, 0.217, 9.644, -12.451, 10.681, 20.814, -0.634, 0.703, -0.307, -14.893, 9.155, 3.113, 19.365, 26.650, 19.370
13550, 0.916, 0.282, 0.500, 21.362, 3.113, -0.183, 23.636, -0.725, -0.646, 0.300, -5.371, -13.428, 3.967, 20.796, -0.633, 0.733, -0.322, -13.977, 11.230, 1.282, 19.344, 26.670, 19.370
13582, 0.914, 0.272, 0.473, 26.611, 7.080, 3.113, 23.648, -0.716, -0.662, 0.287, -16.846, -16.357, 6.714, 20.823, -0.602, 0.742, -0.329, -19.348, 20.386, 0.854, 19.359, 26.670, 19.370
13614, 0.875, 0.292, 0.497, 31.311, 8.972, 7.874, 23.657, -0.731, -0.648, 0.229, -13.611, -20.081, 9.521, 20.838, -0.601, 0.733, -0.324, -29.358, 25.085, -2.014, 19.368, 26.670, 19.370
13648, 0.861, 0.365, 0.495, 30.640, 9.583, 8.911, 23.642, -0.797, -0.624, 0.276, -20.203, -21.362, 5.859, 20.817, -0.558, 0.746, -0.268, -35.339, 23.987, -6.531, 19.374, 26.650, 19.370
13680, 0.910, 0.397, 0.463, 26.428, 12.024, 15.808, 23.654, -0.813, -0.628, 0.281, -26.917, -23.193, -3.357, 20.802, -0.552, 0.767, -0.209, -28.931, 26.306, -12.878, 19.374, 26.650, 19.410
13712, 0.917, 0.426, 0.472, 19.531, 16.357, 24.048, 23.636, -0.798, -0.670, 0.217, -23.560, -15.991, -9.705, 20.817, -0.564, 0.764, -0.206, -5.066, 29.907, -28.992, 19.362, 26.650, 19.410
13746, 0.907, 0.353, 0.503, 10.620, 19.104, 28.931, 23.636, -0.750, -0.693, 0.204, -9.521, -7.019, -19.470, 20.790, -0.662, 0.734, -0.284, 13.550, 30.212, -39.368, 19.365, 26.650, 19.410
13778, 0.918, 0.301, 0.513, 7.629, 23.804, 28.931, 23.654, -0.726, -0.654, 0.281, -18.921, -3.357, -32.104, 20.814, -0.662, 0.724, -0.309, 4.211, 39.246, -28.809, 19.380, 26.650, 19.390
13812, 0.908, 0.293, 0.513, 7.690, 28.076, 29.297, 23.669, -0.708, -0.672, 0.263, -36.804, -8.362, -17.700, 20.826, -0.632, 0.710, -0.305, 1.892, 37.476, -27.405, 19.398, 26.650, 19.390
13844, 0.878, 0.303, 0.518, 8.728, 33.386, 30.884, 23.657, -0.714, -0.693, 0.213, -35.583, -7.629, -18.616, 20.808, -0.626, 0.699, -0.312, 7.202, 36.743, -30.579, 19.356, 26.610, 19.390
13876, 0.865, 0.285, 0.537, 8.179, 37.720, 33.386, 23.660, -0.699, -0.702, 0.173, -30.457, -2.319, -29.236, 20.817, -0.601, 0.676, -0.340, 3.357, 47.668, -34.302, 19.368, 26.610, 19.350
13910, 0.833, 0.226, 0.572, 6.470, 39.917, 39.124, 23.666, -0.637, -0.711, 0.150, -29.907, -3.357, -32.104, 20.826, -0.655, 0.630, -0.389, 3.662, 50.903, -35.034, 19.371, 26.610, 19.350
13942, 0.823, 0.175, 0.601, 8.240, 40.833, 37.170, 23.651, -0.588, -0.725, 0.125, -34.302, -6.775, -28.137, 20.820, -0.709, 0.616, -0.410, 1.953, 50.537, -26.489, 19.356, 26.590, 19.350
13974, 0.833, 0.177, 0.617, 7.507, 39.124, 27.954, 23.642, -0.583, -0.754, 0.083, -47.241, -5.310, -18.616, 20.826, -0.742, 0.610, -0.389, 3.967, 42.603, -16.296, 19.377, 26.590, 19.370
14008, 0.818, 0.182, 0.654, 2.502, 35.950, 16.235, 23.654, -0.570, -0.800, -0.008, -42.664, 2.380, -13.245, 20.805, -0.729, 0.628, -0.425, 16.052, 30.090, -11.047, 19.368, 26.590, 19.370
14040, 0.803, 0.175, 0.676, -3.235, 29.602, 5.188, 23.657, -0.563, -0.805, -0.045, -24.536, 15.381, -9.460, 20.799, -0.780, 0.612, -0.439, 15.198, 27.954, 6.226, 19.389, 26.610, 19.370
14073, 0.789, 0.166, 0.687, -10.376, 22.034, -12.512, 23.657, -0.572, -0.807, -0.055, -16.296, 32.166, -15.747, 20.832, -0.746, 0.615, -0.436, 19.287, 18.433, 26.428, 19.386, 26.610, 19.370
14107, 0.776, 0.180, 0.696, -17.151, 13.672, -25.208, 23.669, -0.557, -0.812, -0.071, 0.610, 43.701, -5.005, 20.832, -0.712, 0.626, -0.467, 27.771, 9.216, 36.987, 19.371, 26.610, 19.370
14139, 0.743, 0.171, 0.693, -21.606, 7.629, -37.903, 23.681, -0.542, -0.767, -0.085, 19.897, 54.565, 3.662, 20.823, -0.683, 0.610, -0.501, 34.912, -16.602, 50.720, 19.383, 26.610, 19.370
14173, 0.718, 0.190, 0.688, -24.170, 2.441, -48.462, 23.654, -0.550, -0.734, -0.082, 30.701, 62.500, 11.597, 20.817, -0.603, 0.627, -0.487, 37.903, -21.301, 59.509, 19.377, 26.610, 19.370
14205, 0.675, 0.219, 0.684, -25.452, -1.465, -57.983, 23.651, -0.594, -0.675, -0.065, 41.443, 65.491, 18.616, 20.826, -0.514, 0.653, -0.493, 36.316, -35.889, 60.669, 19.398, 26.610, 19.370
14237, 0.628, 0.280, 0.669, -22.949, -2.502, -64.636, 23.639, -0.656, -0.634, -0.067, 46.448, 64.880, 29.602, 20.823, -0.393, 0.695, -0.485, 31.677, -32.227, 60.059, 19.386, 26.670, 19.370
14271, 0.598, 0.375, 0.656, -24.170, -5.737, -61.218, 23.660, -0.729, -0.648, -0.113, 59.570, 67.566, 28.809, 20.814, -0.301, 0.711, -0.448, 25.940, -34.973, 54.993, 19.368, 26.670, 19.390
14303, 0.577, 0.396, 0.645, -28.015, -7.568, -51.941, 23.654, -0.710, -0.567, -0.091, 73.669, 71.777, 7.568, 20.811, -0.315, 0.673, -0.438, 32.349, -20.874, 44.983, 19.395, 26.670, 19.390
14335, 0.596, 0.289, 0.670, -28.687, -8.423, -40.466, 23.669, -0.657, -0.583, -0.052, 50.720, 53.833, 3.601, 20.802, -0.354, 0.664, -0.495, 31.921, -26.794, 45.349, 19.374, 26.670, 19.390
14369, 0.570, 0.300, 0.671, -26.978, -13.123, -35.522, 23.672, -0.641, -0.616, -0.092, 57.678, 43.945, -2.625, 20.814, -0.372, 0.675, -0.494, 25.330, -22.888, 41.260, 19.404, 26.670, 19.390
14402, 0.609, 0.295, 0.660, -29.480, -18.738, -39.490, 23.681, -0.618, -0.645, -0.062, 60.425, 46.387, -7.324, 20.841, -0.425, 0.672, -0.448, 28.870, -27.283, 34.485, 19.377, 26.670, 19.390
14434, 0.651, 0.330, 0.666, -34.729, -22.827, -40.283, 23.684, -0.676, -0.608, -0.036, 49.316, 40.955, -2.197, 20.832, -0.438, 0.708, -0.466, 34.180, -36.499, 30.396, 19.392, 26.670, 19.390
14468, 0.697, 0.327, 0.657, -38.147, -27.588, -37.842, 23.633, -0.695, -0.710, 0.012, 56.396, 42.969, -4.211, 20.796, -0.450, 0.741, -0.464, 31.921, -39.551, 32.410, 19.398, 26.670, 19.390
14500, 0.751, 0.327, 0.640, -37.598, -28.381, -35.400, 23.663, -0.701, -0.628, 0.172, 65.979, 38.208, -5.432, 20.802, -0.460, 0.740, -0.461, 28.442, -45.654, 29.968, 19.410, 26.670, 19.390
14534, 0.783, 0.284, 0.635, -31.006, -28.198, -27.222, 23.678, -0.683, -0.634, 0.225, 28.381, 16.663, 15.869, 20.829, -0.452, 0.754, -0.485, 29.114, -35.522, 24.170, 19.377, 26.670, 19.390
14567, 0.792, 0.261, 0.634, -20.813, -27.222, -20.325, 23.663, -0.667, -0.733, 0.133, 30.151, 7.019, 31.738, 20.838, -0.444, 0.762, -0.515, 21.790, -29.968, 15.137, 19.365, 26.670, 19.370
14599, 0.831, 0.256, 0.604, -11.169, -21.423, -18.677, 23.666, -0.674, -0.689, 0.211, 18.860, 2.258, 32.898, 20.814, -0.516, 0.767, -0.462, 7.202, -21.851, 11.902, 19.383, 26.670, 19.370
14633, 0.858, 0.296, 0.584, -2.014, -13.184, -14.221, 23.684, -0.725, -0.688, 0.232, -0.671, -3.601, 31.067, 20.808, -0.519, 0.772, -0.410, 0.793, -10.986, 11.963, 19.398, 26.670, 19.370
14665, 0.841, 0.335, 0.606, 1.404, -8.057, -10.681, 23.669, -0.747, -0.729, 0.160, -7.263, -2.625, 21.545, 20.817, -0.503, 0.785, -0.411, 5.188, -4.883, 8.850, 19.371, 26.670, 19.410
14697, 0.823, 0.352, 0.611, 1.282, -5.127, -5.127, 23.687, -0.784, -0.676, 0.167, -9.033, -5.493, 13.977, 20.835, -0.496, 0.783, -0.426, 4.028, -0.122, 8.301, 19.398, 26.670, 19.410
14732, 0.792, 0.344, 0.610, -0.366, -4.395, -1.526, 23.672, -0.757, -0.684, 0.102, -7.446, -5.432, 7.568, 20.847, -0.478, 0.769, -0.402, 0.854, 1.221, 9.094, 19.398, 26.710, 19.410
14764, 0.791, 0.331, 0.597, -2.258, -4.028, 0.305, 23.687, -0.747, -0.654, 0.156, -6.470, -9.094, 5.737, 20.835, -0.471, 0.747, -0.389, 6.409, -2.014, 1.038, 19.389, 26.710, 19.390
14798, 0.785, 0.282, 0.601, -4.883, -4.089, 4.639, 23.678, -0.701, -0.667, 0.103, -16.479, -9.399, 3.174, 20.823, -0.504, 0.719, -0.422, 12.939, -5.066, -7.385, 19.371, 26.710, 19.390
14830, 0.782, 0.243, 0.610, -5.737, -5.127, 5.493, 23.696, -0.657, -0.688, 0.099, -19.531, -15.320, 2.563, 20.835, -0.539, 0.709, -0.441, 10.559, -3.174, -4.761, 19.389, 26.710, 19.390
14862, 0.828, 0.246, 0.593, -4.517, -5.493, 3.906, 23.669, -0.675, -0.707, 0.103, -22.095, -15.015, 2.502, 20.832, -0.567, 0.726, -0.419, 8.545, -3.479, -3.418, 19.401, 26.710, 19.370
14897, 0.839, 0.250, 0.603, -2.136, -3.540, 1.343, 23.660, -0.674, -0.718, 0.097, -16.602, -16.663, 4.883, 20.838, -0.572, 0.749, -0.437, 12.512, -3.540, -3.418, 19.395, 26.710, 19.370
14929, 0.845, 0.287, 0.610, -0.244, -2.380, 0.000, 23.678, -0.734, -0.713, 0.114, -12.695, -11.841, 4.333, 20.829, -0.551, 0.769, -0.433, 6.897, 0.000, -0.244, 19.395, 26.670, 19.370
14961, 0.856, 0.324, 0.599, -1.038, -2.197, 0.671, 23.675, -0.755, -0.693, 0.128, -12.573, -4.517, -0.305, 20.829, -0.548, 0.780, -0.391, 6.042, 0.305, -0.793, 19.401, 26.670, 19.390
14995, 0.859, 0.336, 0.598, -4.089, -1.282, 0.671, 23.693, -0.771, -0.704, 0.114, -17.700, -0.427, -3.052, 20.844, -0.555, 0.791, -0.387, 11.841, -0.061, -1.343, 19.386, 26.670, 19.390
15028, 0.862, 0.344, 0.595, -7.629, -1.099, 1.282, 23.657, -0.766, -0.705, 0.088, -16.724, 0.671, -5.676, 20.847, -0.552, 0.787, -0.389, 13.306, -0.916, -0.305, 19.413, 26.670, 19.390
15061, 0.849, 0.333, 0.597, -12.695, -1.282, 2.258, 23.687, -0.737, -0.713, 0.071, -13.184, 6.104, -11.108, 20.841, -0.551, 0.778, -0.389, 17.029, -2.808, -0.854, 19.404, 26.670, 19.390
15096, 0.843, 0.318, 0.588, -17.273, -1.465, 0.977, 23.690, -0.727, -0.708, 0.064, -2.625, 10.620, -9.583, 20.820, -0.557, 0.760, -0.397, 23.132, -5.981, -0.061, 19.404, 26.670, 19.390
15129, 0.836, 0.299, 0.595, -19.531, -2.441, -0.671, 23.684, -0.723, -0.697, 0.061, 5.249, 15.076, -9.644, 20.835, -0.552, 0.753, -0.412, 26.733, -4.700, 4.700, 19.407, 26.670, 19.390
15162, 0.820, 0.281, 0.599, -20.203, -1.953, -2.808, 23.699, -0.708, -0.685, 0.057, 9.705, 18.188, -10.803, 20.847, -0.541, 0.749, -0.447, 28.137, -4.761, 6.104, 19.398, 26.670, 19.370
15197, 0.805, 0.282, 0.600, -19.775, -3.723, -3.113, 23.693, -0.721, -0.683, 0.068, 10.376, 15.320, -6.287, 20.835, -0.521, 0.757, -0.458, 23.987, 0.061, 9.949, 19.407, 26.670, 19.370
15230, 0.817, 0.273, 0.591, -19.531, -4.395, -2.258, 23.687, -0.712, -0.692, 0.068, 8.362, 14.099, -7.751, 20.859, -0.523, 0.752, -0.447, 18.494, -7.629, 9.888, 19.389, 26.670, 19.370
15265, 0.822, 0.258, 0.593, -17.883, -4.761, -2.991, 23.699, -0.686, -0.685, 0.079, 8.667, 11.536, -7.568, 20.856, -0.501, 0.757, -0.458, 19.775, -3.052, 7.507, 19.398, 26.670, 19.410
15298, 0.820, 0.241, 0.593, -13.000, -3.784, -2.441, 23.678, -0.704, -0.683, 0.092, 7.690, 6.958, -2.258, 20.847, -0.483, 0.765, -0.491, 14.465, -3.052, 3.418, 19.407, 26.730, 19.410
15331, 0.813, 0.258, 0.594, -5.066, -2.441, -1.892, 23.678, -0.703, -0.671, 0.103, -2.991, -0.305, -3.540, 20.853, -0.463, 0.762, -0.479, 5.493, -1.404, -1.221, 19.386, 26.730, 19.390
15366, 0.808, 0.282, 0.584, 1.282, -0.549, 1.892, 23.699, -0.717, -0.673, 0.079, -7.690, -4.822, 1.099, 20.850, -0.479, 0.751, -0.440, 0.916, 3.357, -3.235, 19.419, 26.730, 19.390
15399, 0.795, 0.311, 0.586, 2.014, -0.732, 4.944, 23.705, -0.748, -0.667, 0.056, -11.047, -6.348, -1.831, 20.853, -0.464, 0.746, -0.423, 1.282, 4.333, -4.578, 19.395, 26.670, 19.390
15432, 0.796, 0.298, 0.588, 0.183, -2.136, 8.606, 23.687, -0.725, -0.679, 0.036, -8.118, -6.104, -9.277, 20.850, -0.483, 0.741, -0.424, 4.578, 3.174, -9.094, 19.398, 26.670, 19.370
15467, 0.792, 0.288, 0.585, -1.892, -3.113, 9.277, 23.699, -0.704, -0.677, 0.031, -7.568, -5.798, -11.475, 20.850, -0.503, 0.733, -0.426, 6.042, 1.953, -8.606, 19.419, 26.670, 19.370
15500, 0.808, 0.265, 0.578, -4.761, -4.089, 8.850, 23.708, -0.674, -0.701, 0.029, -4.883, -0.732, -12.146, 20.829, -0.522, 0.718, -0.409, 3.540, 0.732, -5.920, 19.383, 26.670, 19.370
15533, 0.814, 0.235, 0.585, -7.507, -5.005, 7.629, 23.693, -0.653, -0.704, 0.025, -0.061, 0.671, -14.099, 20.832, -0.537, 0.708, -0.431, 10.864, -0.977, -5.188, 19.410, 26.670, 19.390
15568, 0.824, 0.217, 0.585, -7.690, -5.188, 4.333, 23.681, -0.647, -0.717, 0.023, -0.061, 1.709, -8.850, 20.832, -0.562, 0.713, -0.454, 10.315, -3.662, -4.578, 19.422, 26.670, 19.390
15601, 0.845, 0.193, 0.582, -7.141, -5.920, 0.793, 23.681, -0.634, -0.737, 0.035, 2.014, 2.869, -6.348, 20.844, -0.593, 0.712, -0.446, 7.019, -1.282, 2.747, 19.410, 26.650, 19.390
15636, 0.872, 0.201, 0.577, -4.456, -3.967, -3.845, 23.696, -0.653, -0.733, 0.062, -0.122, 2.502, -1.770, 20.862, -0.585, 0.740, -0.442, 4.395, 1.770, 9.827, 19.422, 26.650, 19.390
15669, 0.885, 0.238, 0.571, -3.296, -2.380, -7.446, 23.681, -0.668, -0.747, 0.066, -0.122, 3.845, 2.380, 20.850, -0.576, 0.755, -0.417, 3.357, 2.258, 13.184, 19.410, 26.650, 19.390
15701, 0.885, 0.245, 0.572, -2.625, -0.305, -9.766, 23.717, -0.684, -0.738, 0.072, -2.258, 4.089, 7.385, 20.841, -0.558, 0.766, -0.415, 7.690, -0.061, 12.329, 19.407, 26.670, 19.390
15736, 0.873, 0.275, 0.572, -1.709, 1.038, -11.292, 23.693, -0.711, -0.728, 0.052, 0.549, 6.287, 8.911, 20.838, -0.529, 0.782, -0.415, 6.531, 1.404, 14.282, 19.410, 26.670, 19.390
15769, 0.848, 0.303, 0.571, -2.625, 1.587, -11.902, 23.681, -0.727, -0.708, 0.049, 3.235, 8.301, 6.287, 20.850, -0.502, 0.786, -0.407, 6.226, 2.686, 14.282, 19.413, 26.670, 19.390
15802, 0.833, 0.330, 0.564, -5.127, 1.709, -10.620, 23.702, -0.747, -0.690, 0.046, 7.507, 10.986, 3.662, 20.886, -0.469, 0.787, -0.392, 7.202, 2.136, 14.771, 19.437, 26.670, 19.390
15837, 0.824, 0.332, 0.562, -7.568, 1.404, -8.118, 23.708, -0.742, -0.682, 0.042, 9.338, 12.085, 0.610, 20.844, -0.459, 0.792, -0.397, 7.874, 3.296, 16.174, 19.407, 26.670, 19.410
15870, 0.814, 0.334, 0.561, -9.827, 0.977, -6.165, 23.705, -0.743, -0.674, 0.041, 11.047, 14.282, -3.235, 20.841, -0.443, 0.793, -0.391, 8.240, 2.869, 13.550, 19.419, 26.670, 19.410
15903, 0.812, 0.326, 0.563, -12.695, 0.244, -4.028, 23.699, -0.738, -0.678, 0.040, 10.925, 15.015, -7.446, 20.874, -0.448, 0.796, -0.406, 7.324, 5.066, 16.296, 19.407, 26.710, 19.410
15938, 0.812, 0.311, 0.574, -14.954, -2.014, -1.587, 23.693, -0.733, -0.680, 0.028, 11.902, 16.724, -8.240, 20.850, -0.441, 0.789, -0.396, -1.770, 11.353, 26.733, 19.395, 26.710, 19.410
15971, 0.822, 0.298, 0.574, -18.250, -3.845, 0.549, 23.702, -0.714, -0.696, 0.040, 9.705, 14.221, -12.573, 20.874, -0.442, 0.798, -0.406, 4.089, 8.423, 21.362, 19.425, 26.710, 19.410
16004, 0.835, 0.263, 0.576, -18.921, -4.333, 1.648, 23.711, -0.685, -0.718, 0.027, 10.376, 14.099, -12.146, 20.859, -0.451, 0.807, -0.437, 1.465, 9.216, 24.475, 19.448, 26.770, 19.410
16039, 0.842, 0.231, 0.579, -18.188, -4.761, 0.122, 23.702, -0.666, -0.726, 0.033, 12.573, 14.038, -13.550, 20.862, -0.452, 0.807, -0.444, -6.348, 11.719, 27.893, 19.437, 26.770, 19.390
16072, 0.855, 0.205, 0.572, -15.503, -4.456, -0.732, 23.696, -0.632, -0.742, 0.035, 13.000, 13.611, -12.634, 20.871, -0.452, 0.812, -0.437, -12.085, 12.695, 29.663, 19.419, 26.770, 19.390
16107, 0.855, 0.186, 0.573, -10.986, -3.418, -3.174, 23.702, -0.622, -0.750, 0.038, 14.160, 12.512, -8.667, 20.871, -0.443, 0.824, -0.437, -13.123, 14.282, 30.273, 19.413, 26.670, 19.390
16140, 0.853, 0.186, 0.572, -6.775, -2.441, -5.737, 23.717, -0.621, -0.743, 0.037, 17.639, 12.756, -5.066, 20.868, -0.410, 0.831, -0.418, -14.465, 13.489, 28.137, 19.413, 26.670, 19.390
16173, 0.856, 0.206, 0.565, -2.991, -1.892, -8.118, 23.696, -0.625, -0.736, 0.062, 8.728, 6.409, -0.366, 20.880, -0.385, 0.855, -0.398, -12.756, 9.460, 20.386, 19.410, 26.670, 19.390
16208, 0.850, 0.229, 0.564, -0.549, -0.977, -9.094, 23.714, -0.655, -0.732, 0.053, -0.732, 0.488, 8.850, 20.850, -0.378, 0.846, -0.370, -3.174, 2.625, 12.756, 19.422, 26.710, 19.390
16241, 0.840, 0.265, 0.562, -0.244, -1.099, -9.460, 23.726, -0.671, -0.731, 0.024, -3.052, 0.854, 7.324, 20.868, -0.354, 0.872, -0.366, 6.531, -0.854, 6.409, 19.410, 26.710, 19.410
16274, 0.836, 0.292, 0.565, -2.136, -0.854, -9.338, 23.720, -0.700, -0.720, 0.022, 7.385, 7.019, 4.333, 20.883, -0.339, 0.867, -0.349, 6.592, -5.005, 0.244, 19.416, 26.710, 19.410
16309, 0.836, 0.308, 0.562, -5.920, -1.160, -7.935, 23.714, -0.714, -0.710, 0.032, 8.972, 9.216, -1.709, 20.868, -0.347, 0.872, -0.353, 8.667, -3.784, 4.822, 19.401, 26.710, 19.410
16342, 0.830, 0.308, 0.563, -9.155, -1.953, -6.287, 23.720, -0.714, -0.711, 0.033, 10.864, 11.169, -3.052, 20.835, -0.324, 0.877, -0.356, 13.000, -6.836, 0.793, 19.425, 26.710, 19.390
16375, 0.828, 0.309, 0.560, -11.414, -2.502, -4.456, 23.720, -0.712, -0.697, 0.037, 9.094, 10.132, -4.822, 20.856, -0.334, 0.872, -0.355, 14.954, -9.521, -3.540, 19.431, 26.710, 19.390
16410, 0.827, 0.312, 0.559, -14.465, -3.906, -2.747, 23.720, -0.708, -0.719, 0.027, 9.705, 11.658, -5.371, 20.856, -0.334, 0.871, -0.345, 16.785, -10.620, -3.662, 19.413, 26.710, 19.390
16443, 0.829, 0.303, 0.557, -17.883, -4.456, -1.282, 23.726, -0.706, -0.711, 0.026, 14.343, 14.343, -10.742, 20.898, -0.335, 0.874, -0.355, 19.592, -13.611, -5.981, 19.431, 26.710, 19.430
16478, 0.824, 0.299, 0.552, -19.836, -5.066, -0.488, 23.711, -0.697, -0.702, 0.030, 19.653, 17.212, -12.451, 20.868, -0.338, 0.865, -0.346, 22.522, -17.883, -14.954, 19.434, 26.730, 19.430
16511, 0.842, 0.294, 0.550, -22.644, -6.775, -0.061, 23.720, -0.694, -0.716, 0.042, 19.409, 17.883, -13.123, 20.880, -0.369, 0.867, -0.354, 30.823, -28.809, -28.687, 19.434, 26.730, 19.430
16544, 0.865, 0.285, 0.542, -25.513, -6.592, -0.366, 23.705, -0.685, -0.732, 0.054, 23.315, 21.790, -14.832, 20.862, -0.389, 0.860, -0.343, 30.396, -29.541, -31.738, 19.422, 26.730, 19.430
16579, 0.868, 0.262, 0.552, -27.161, -5.127, -1.038, 23.717, -0.672, -0.745, 0.046, 28.748, 25.330, -12.817, 20.865, -0.358, 0.882, -0.384, 35.217, -40.344, -69.275, 19.440, 26.770, 19.430
16612, 0.886, 0.235, 0.572, -27.466, -5.737, -2.502, 23.717, -0.656, -0.766, 0.038, 32.104, 29.297, -13.611, 20.862, -0.490, 0.827, -0.436, 20.386, -49.072, -96.924, 19.431, 26.770, 19.390
16645, 0.897, 0.199, 0.562, -25.696, -6.592, -4.517, 23.711, -0.639, -0.764, 0.097, 27.283, 25.635, -11.597, 20.895, -0.652, 0.785, -0.447, 7.935, -7.629, -52.246, 19.434, 26.770, 19.390
16680, 0.927, 0.187, 0.538, -19.958, -4.272, -7.080, 23.723, -0.615, -0.768, 0.115, 13.306, 18.616, -3.174, 20.868, -0.751, 0.726, -0.313, -13.611, 4.395, 0.671, 19.410, 26.430, 19.390
16713, 0.932, 0.216, 0.544, -15.991, 0.061, -13.855, 23.726, -0.642, -0.771, 0.096, 8.606, 19.165, 4.700, 20.889, -0.589, 0.766, -0.322, 22.400, -12.390, 0.916, 19.434, 26.430, 19.410
16746, 0.901, 0.255, 0.562, -15.137, 2.808, -16.602, 23.696, -0.688, -0.755, 0.079, 3.113, 16.418, 8.057, 20.880, -0.603, 0.787, -0.348, 30.029, -13.550, 2.075, 19.416, 26.430, 19.410
16782, 0.894, 0.269, 0.562, -15.869, 4.761, -16.541, 23.714, -0.697, -0.768, 0.048, 6.775, 19.531, 7.263, 20.877, -0.580, 0.795, -0.365, 15.259, -5.432, 22.400, 19.446, 26.050, 19.410
16815, 0.880, 0.243, 0.563, -16.235, 4.944, -16.357, 23.717, -0.678, -0.753, 0.063, 13.489, 23.071, 4.028, 20.859, -0.556, 0.784, -0.356, 14.038, -4.944, 28.320, 19.460, 26.050, 19.350
16850, 0.858, 0.239, 0.566, -14.954, 4.700, -16.479, 23.729, -0.669, -0.736, 0.061, 6.531, 19.409, 5.127, 20.877, -0.553, 0.763, -0.348, 22.888, -10.559, 22.339, 19.431, 26.050, 19.350
16883, 0.842, 0.240, 0.564, -14.221, 4.028, -16.174, 23.720, -0.664, -0.730, 0.034, 4.028, 17.456, 7.080, 20.865, -0.528, 0.764, -0.382, 22.583, -9.338, 21.362, 19.419, 26.030, 19.350
16916, 0.821, 0.241, 0.577, -13.733, 2.686, -15.137, 23.738, -0.665, -0.722, 0.012, 6.592, 17.639, 5.066, 20.901, -0.496, 0.781, -0.402, 15.747, -0.854, 21.851, 19.431, 26.030, 19.370
16952, 0.801, 0.247, 0.575, -12.268, 2.441, -14.282, 23.732, -0.666, -0.701, 0.005, 11.414, 18.250, 3.967, 20.892, -0.445, 0.774, -0.383, 7.202, -5.615, 17.090, 19.413, 26.030, 19.370
16985, 0.787, 0.251, 0.578, -11.902, 0.244, -11.963, 23.723, -0.671, -0.705, 0.004, 9.521, 14.954, 1.343, 20.880, -0.449, 0.757, -0.377, 7.263, -5.127, 9.460, 19.428, 26.090, 19.370
17018, 0.787, 0.236, 0.576, -11.658, -2.258, -9.583, 23.717, -0.645, -0.706, -0.003, 11.230, 14.465, -3.601, 20.880, -0.447, 0.759, -0.377, 9.644, -6.714, 0.916, 19.440, 26.090, 19.410
17053, 0.781, 0.235, 0.576, -10.925, -4.089, -9.399, 23.723, -0.647, -0.698, -0.010, 15.015, 12.878, -2.808, 20.865, -0.469, 0.770, -0.377, 12.512, -9.521, -4.883, 19.425, 26.090, 19.410
17086, 0.805, 0.261, 0.564, -11.963, -5.798, -10.620, 23.729, -0.667, -0.705, -0.001, 13.916, 12.695, -1.648, 20.883, -0.451, 0.758, -0.350, 13.000, -6.592, -5.005, 19.422, 26.030, 19.410
17119, 0.805, 0.258, 0.578, -15.076, -7.324, -8.301, 23.747, -0.671, -0.727, -0.019, 17.517, 14.465, -3.357, 20.886, -0.477, 0.756, -0.364, 17.090, -7.751, -6.531, 19.425, 26.030, 19.410
17155, 0.815, 0.259, 0.567, -16.602, -9.521, -8.057, 23.726, -0.666, -0.711, 0.010, 26.062, 17.334, -8.423, 20.886, -0.470, 0.793, -0.387, 25.818, -13.489, 1.282, 19.431, 26.030, 19.410
17188, 0.840, 0.282, 0.561, -19.104, -10.498, -9.033, 23.729, -0.683, -0.723, 0.028, 24.048, 16.724, -5.371, 20.868, -0.509, 0.788, -0.349, 17.578, -6.470, 3.113, 19.422, 25.750, 19.410
17224, 0.876, 0.227, 0.552, -22.156, -10.986, -6.165, 23.741, -0.659, -0.764, 0.064, 23.193, 16.541, -8.606, 20.883, -0.534, 0.789, -0.375, 36.133, 4.150, 7.324, 19.454, 25.750, 19.370
17255, 0.919, 0.182, 0.546, -19.653, -10.925, -4.456, 23.717, -0.623, -0.791, 0.105, 20.569, 14.099, -8.545, 20.880, -0.562, 0.819, -0.454, 15.259, 27.039, 16.541, 19.437, 25.750, 19.370
17287, 0.959, 0.148, 0.562, -12.939, -9.094, -5.615, 23.744, -0.606, -0.815, 0.118, 13.184, 9.705, -0.671, 20.886, -0.596, 0.810, -0.517, 14.526, 53.040, 47.913, 19.446, 25.190, 19.370
17321, 0.975, 0.224, 0.542, -4.211, -3.845, -10.803, 23.726, -0.667, -0.814, 0.124, 4.089, 6.897, 7.751, 20.913, -0.576, 0.826, -0.410, 17.029, 65.674, 64.209, 19.437, 25.190, 19.430
17353, 0.971, 0.281, 0.552, -2.136, -0.061, -9.583, 23.723, -0.732, -0.818, 0.092, -0.061, 9.094, 7.141, 20.886, -0.616, 0.864, -0.379, 38.452, 40.771, 64.575, 19.451, 25.190, 19.430
17385, 0.938, 0.244, 0.589, -8.728, 8.179, -4.944, 23.744, -0.678, -0.811, 0.053, 2.136, 12.512, 0.244, 20.865, -0.483, 0.807, -0.446, -7.996, 7.019, 41.748, 19.434, 24.770, 19.430
17419, 0.920, 0.229, 0.558, -8.667, 6.653, -7.690, 23.738, -0.673, -0.778, 0.082, 3.601, 15.869, -0.732, 20.907, -0.428, 0.823, -0.463, 18.311, 14.648, 39.917, 19.454, 24.770, 19.410
17451, 0.903, 0.259, 0.555, -9.155, 8.972, -7.690, 23.756, -0.686, -0.768, 0.056, -4.578, 14.404, 1.770, 20.913, -0.396, 0.870, -0.447, 13.245, 8.484, 28.503, 19.437, 24.770, 19.410
17483, 0.898, 0.272, 0.558, -12.329, 11.963, -7.263, 23.747, -0.691, -0.769, 0.043, -7.812, 17.273, -0.671, 20.898, -0.357, 0.847, -0.469, 20.874, 11.353, 30.640, 19.437, 24.690, 19.410
17517, 0.890, 0.234, 0.557, -14.893, 14.832, -5.737, 23.735, -0.660, -0.778, 0.038, -4.639, 20.813, -3.357, 20.880, -0.328, 0.849, -0.511, 23.743, 21.179, 24.414, 19.446, 24.690, 19.410
17549, 0.864, 0.215, 0.573, -12.817, 15.320, -4.150, 23.741, -0.649, -0.750, 0.038, -6.348, 18.860, -2.808, 20.907, -0.312, 0.816, -0.492, 10.498, 28.320, 8.301, 19.428, 24.690, 19.410
17583, 0.875, 0.218, 0.570, -9.460, 15.991, -3.113, 23.759, -0.654, -0.768, 0.031, -9.766, 15.625, -0.916, 20.889, -0.333, 0.855, -0.500, 14.099, 33.386, 9.399, 19.440, 24.710, 19.410
17615, 0.876, 0.245, 0.592, -7.568, 16.418, -2.747, 23.741, -0.673, -0.772, 0.005, -13.733, 14.832, -1.709, 20.880, -0.307, 0.841, -0.497, 10.071, 45.227, 4.761, 19.446, 24.710, 19.410
17647, 0.864, 0.231, 0.606, -8.972, 17.029, -2.686, 23.762, -0.660, -0.787, -0.033, -14.709, 15.015, -2.502, 20.877, -0.323, 0.839, -0.508, 22.095, 41.504, 2.014, 19.440, 24.710, 19.410
17681, 0.865, 0.215, 0.613, -9.338, 17.761, -3.784, 23.750, -0.655, -0.782, -0.024, -10.620, 17.029, -3.357, 20.892, -0.344, 0.847, -0.547, 32.288, 27.588, 11.841, 19.451, 24.810, 19.410
17713, 0.864, 0.200, 0.618, -9.827, 18.311, -3.357, 23.747, -0.632, -0.792, -0.041, -10.559, 16.113, 1.526, 20.874, -0.317, 0.842, -0.576, 18.127, 18.494, 7.141, 19.440, 24.810, 19.430
17745, 0.840, 0.202, 0.634, -7.507, 18.738, -5.676, 23.753, -0.637, -0.771, -0.062, -11.169, 16.174, 4.272, 20.886, -0.276, 0.840, -0.594, 19.165, 23.193, 12.573, 19.443, 24.810, 19.430
17779, 0.816, 0.215, 0.631, -6.287, 17.822, -8.240, 23.768, -0.646, -0.753, -0.074, -10.681, 16.357, 5.493, 20.874, -0.250, 0.830, -0.612, 16.968, 33.691, 12.756, 19.422, 24.890, 19.430
17811, 0.776, 0.197, 0.641, -5.127, 18.127, -8.728, 23.747, -0.621, -0.731, -0.097, -10.376, 15.991, 4.211, 20.898, -0.215, 0.777, -0.602, 5.676, 41.382, 15.564, 19.463, 24.890, 19.410
17843, 0.733, 0.191, 0.642, -2.808, 16.968, -8.606, 23.756, -0.604, -0.709, -0.125, -10.071, 14.832, 5.188, 20.898, -0.181, 0.761, -0.589, -1.709, 42.114, 10.010, 19.454, 24.890, 19.410
17877, 0.705, 0.202, 0.660, -0.916, 13.977, -9.644, 23.744, -0.604, -0.697, -0.162, -7.141, 13.428, 5.127, 20.886, -0.172, 0.740, -0.586, 5.432, 41.321, 15.015, 19.451, 24.930, 19.410
17909, 0.684, 0.178, 0.676, -0.793, 12.207, -9.949, 23.762, -0.578, -0.689, -0.186, -7.141, 10.010, 5.676, 20.877, -0.149, 0.734, -0.599, 4.028, 33.020, 17.212, 19.448, 24.930, 19.410
17943, 0.657, 0.171, 0.689, 0.671, 9.705, -11.292, 23.741, -0.579, -0.680, -0.209, -3.601, 7.935, 9.644, 20.886, -0.096, 0.723, -0.630, -1.221, 24.109, 8.911, 19.463, 25.010, 19.410
17976, 0.653, 0.197, 0.688, 2.075, 6.775, -12.573, 23.750, -0.595, -0.671, -0.221, -0.427, 7.446, 10.742, 20.910, -0.104, 0.726, -0.597, 0.061, 16.663, 10.559, 19.443, 25.010, 19.410
18008, 0.640, 0.210, 0.688, 1.953, 4.822, -13.123, 23.774, -0.605, -0.661, -0.219, 2.808, 6.042, 10.803, 20.895, -0.078, 0.729, -0.603, -1.099, 7.751, 10.010, 19.448, 25.010, 19.430
18042, 0.650, 0.230, 0.679, 1.160, 3.174, -12.146, 23.744, -0.626, -0.656, -0.199, 3.235, 5.981, 8.789, 20.901, -0.072, 0.741, -0.574, -0.244, 3.235, 11.108, 19.446, 25.070, 19.430
18074, 0.648, 0.255, 0.687, 0.366, 1.770, -10.315, 23.747, -0.649, -0.641, -0.198, 2.319, 5.737, 7.141, 20.907, -0.032, 0.755, -0.579, 0.610, 3.479, 11.353, 19.446, 25.070, 19.430
18106, 0.644, 0.275, 0.689, -0.977, 0.488, -7.568, 23.762, -0.667, -0.638, -0.212, -1.587, 3.601, 5.249, 20.892, -0.025, 0.756, -0.545, 2.502, 1.160, 3.601, 19.460, 25.070, 19.450
18141, 0.657, 0.261, 0.695, -3.906, 1.160, -4.211, 23.747, -0.659, -0.656, -0.210, 1.709, 4.700, 0.732, 20.868, -0.040, 0.758, -0.576, 13.245, 2.563, 4.395, 19.443, 25.110, 19.450
18173, 0.656, 0.264, 0.699, -3.906, 1.099, -2.136, 23.747, -0.662, -0.646, -0.204, -0.488, 2.930, -1.221, 20.886, -0.034, 0.771, -0.587, 16.907, -0.549, 7.507, 19.440, 25.110, 19.450
18205, 0.669, 0.268, 0.690, -3.601, 1.221, -0.244, 23.750, -0.667, -0.652, -0.190, -3.540, 1.892, -4.395, 20.895, -0.027, 0.771, -0.594, 14.465, 2.502, -0.488, 19.457, 25.110, 19.430
18239, 0.688, 0.264, 0.674, -3.845, 1.648, 1.404, 23.783, -0.650, -0.671, -0.189, -4.944, 0.916, -6.226, 20.898, -0.067, 0.787, -0.583, 17.639, 5.127, -6.592, 19.440, 25.050, 19.430
18271, 0.700, 0.269, 0.681, -4.150, 2.136, 2.563, 23.747, -0.661, -0.677, -0.183, -0.671, 2.808, -5.005, 20.907, -0.096, 0.785, -0.583, 13.062, 6.531, -5.737, 19.463, 25.050, 19.430
18303, 0.718, 0.257, 0.674, -5.737, 3.113, 3.723, 23.768, -0.646, -0.692, -0.174, 1.160, 3.723, -6.470, 20.889, -0.109, 0.789, -0.585, 21.423, 4.883, -9.033, 19.440, 25.050, 19.430
18338, 0.741, 0.222, 0.682, -4.272, 3.723, 2.441, 23.768, -0.631, -0.704, -0.151, 0.366, 3.235, -5.310, 20.898, -0.123, 0.808, -0.648, 20.935, 7.385, -5.615, 19.454, 25.010, 19.430
18370, 0.753, 0.241, 0.682, -1.892, 4.028, 1.343, 23.768, -0.657, -0.721, -0.151, -3.174, 1.038, -1.892, 20.919, -0.143, 0.821, -0.632, 9.155, 5.676, -7.141, 19.454, 25.010, 19.430
18404, 0.766, 0.261, 0.688, 0.061, 2.197, 1.221, 23.765, -0.672, -0.737, -0.154, -3.174, -0.305, -0.549, 20.907, -0.139, 0.835, -0.624, 8.484, 5.554, -2.869, 19.460, 25.010, 19.410
18436, 0.782, 0.267, 0.678, -0.061, 1.648, 1.282, 23.756, -0.686, -0.746, -0.140, 0.000, -0.183, -2.441, 20.901, -0.171, 0.826, -0.611, 8.972, 3.845, -4.944, 19.437, 24.890, 19.410
18468, 0.792, 0.267, 0.676, 0.244, 1.404, 1.587, 23.768, -0.684, -0.740, -0.124, -1.343, -1.953, -2.747, 20.913, -0.155, 0.844, -0.618, 9.644, 5.737, -2.014, 19.457, 24.890, 19.410
18503, 0.786, 0.271, 0.680, 1.038, 1.221, 2.258, 23.765, -0.689, -0.750, -0.143, -2.380, -3.662, -0.488, 20.886, -0.159, 0.852, -0.622, 7.996, 3.479, -4.517, 19.446, 24.890, 19.370
18535, 0.780, 0.258, 0.681, 1.343, 0.122, 2.747, 23.780, -0.679, -0.744, -0.144, 2.502, -2.258, -2.136, 20.907, -0.138, 0.842, -0.646, 4.822, 4.822, -3.357, 19.463, 24.770, 19.370
18567, 0.765, 0.253, 0.681, 3.174, -0.793, 3.296, 23.762, -0.670, -0.729, -0.142, 3.113, -4.150, -2.197, 20.913, -0.139, 0.821, -0.626, -2.930, 5.310, -6.592, 19.454, 24.770, 19.370
18601, 0.758, 0.259, 0.675, 4.578, -1.831, 4.272, 23.765, -0.670, -0.720, -0.139, 0.244, -7.385, -3.601, 20.892, -0.150, 0.805, -0.593, 2.136, 5.493, -7.019, 19.448, 24.770, 19.390
18633, 0.750, 0.252, 0.667, 4.761, -2.808, 5.371, 23.765, -0.659, -0.710, -0.144, -2.380, -9.338, -6.104, 20.904, -0.131, 0.814, -0.616, 3.113, 4.578, -4.089, 19.437, 24.690, 19.390
18666, 0.743, 0.250, 0.667, 6.348, -3.784, 6.531, 23.768, -0.661, -0.687, -0.138, -11.963, -14.038, -4.333, 20.889, -0.107, 0.818, -0.625, 0.610, 3.174, -5.371, 19.434, 24.690, 19.390
18708, 0.750, 0.269, 0.660, 9.155, -1.526, 7.629, 23.765, -0.682, -0.703, -0.124, -25.574, -17.761, -14.709, 20.910, -0.084, 0.850, -0.622, -8.606, 14.343, -3.052, 19.460, 24.690, 19.430
18741, 0.754, 0.282, 0.650, 10.010, -1.953, 10.437, 23.762, -0.673, -0.696, -0.156, -30.701, -16.663, -13.428, 20.913, -0.040, 0.784, -0.574, -25.574, 38.513, -25.574, 19.460, 24.710, 19.430
18773, 0.757, 0.284, 0.667, 10.925, -1.587, 10.132, 23.774, -0.687, -0.692, -0.127, -40.283, -29.480, -4.150, 20.910, -0.081, 0.796, -0.574, 2.197, 51.941, -38.940, 19.466, 24.710, 19.450
18807, 0.765, 0.290, 0.649, 11.841, -1.709, 13.123, 23.774, -0.657, -0.720, -0.207, -43.091, -37.720, 9.338, 20.901, -0.168, 0.895, -0.562, 6.714, 39.307, -49.194, 19.487, 24.710, 19.450
18839, 0.774, 0.280, 0.649, 9.583, -1.404, 13.977, 23.800, -0.689, -0.729, -0.187, -29.724, -24.780, -3.784, 20.925, -0.130, 0.820, -0.629, -15.503, 51.941, -64.392, 19.446, 24.810, 19.450
18873, 0.771, 0.262, 0.652, 10.437, -0.366, 12.939, 23.780, -0.651, -0.709, -0.178, -9.827, -13.977, -8.667, 20.910, -0.161, 0.704, -0.622, -44.006, 96.985, -98.022, 19.463, 24.810, 19.450
18905, 0.791, 0.257, 0.644, 10.864, 1.831, 10.315, 23.780, -0.656, -0.711, -0.150, -6.287, -12.756, 0.061, 20.925, -0.362, 0.826, -0.500, -12.390, 68.726, -63.904, 19.475, 24.810, 19.450
18937, 0.795, 0.283, 0.631, 8.972, 4.517, 10.559, 23.759, -0.708, -0.714, -0.149, -15.381, -12.634, -1.892, 20.928, -0.330, 0.837, -0.495, 12.451, 23.682, 2.197, 19.451, 25.010, 19.450
18971, 0.791, 0.295, 0.643, 3.479, 5.737, 9.888, 23.803, -0.694, -0.717, -0.189, -17.334, -6.226, -11.963, 20.916, -0.193, 0.830, -0.560, 11.597, -3.479, 16.907, 19.460, 25.010, 19.430
19003, 0.786, 0.275, 0.641, 0.793, 5.554, 8.911, 23.771, -0.669, -0.722, -0.179, -9.705, -2.319, -10.925, 20.895, -0.153, 0.833, -0.581, 6.836, 8.789, -2.563, 19.454, 25.010, 19.430
19035, 0.798, 0.252, 0.649, -0.366, 5.310, 8.484, 23.771, -0.657, -0.733, -0.178, -7.202, -1.648, -8.667, 20.907, -0.202, 0.826, -0.591, 4.822, 20.691, -12.512, 19.493, 25.230, 19.430
19069, 0.803, 0.237, 0.651, -0.122, 4.639, 6.592, 23.780, -0.638, -0.746, -0.190, -3.479, -1.465, -3.601, 20.913, -0.243, 0.833, -0.579, 5.493, 12.024, -3.906, 19.484, 25.230, 19.470
19101, 0.802, 0.233, 0.647, 0.000, 4.089, 4.150, 23.786, -0.645, -0.747, -0.179, 0.488, -0.244, -1.587, 20.913, -0.212, 0.822, -0.602, 8.911, 5.798, 2.686, 19.484, 25.230, 19.470
19133, 0.814, 0.237, 0.645, 0.549, 3.845, 2.014, 23.783, -0.658, -0.740, -0.153, 0.549, 0.061, -2.686, 20.946, -0.224, 0.842, -0.608, 10.803, 11.169, 4.700, 19.490, 25.310, 19.470
19167, 0.805, 0.240, 0.647, 2.380, 3.662, 0.916, 23.780, -0.653, -0.740, -0.163, -2.686, -1.465, -1.465, 20.931, -0.194, 0.846, -0.598, 5.737, 6.897, 5.554, 19.475, 25.310, 19.430
19199, 0.793, 0.261, 0.651, 3.052, 3.418, -0.305, 23.783, -0.671, -0.732, -0.168, -1.221, -1.221, -1.404, 20.901, -0.194, 0.846, -0.577, 0.183, 6.836, 1.648, 19.478, 25.310, 19.430
19233, 0.785, 0.268, 0.647, 2.991, 2.686, 0.183, 23.806, -0.676, -0.721, -0.174, -2.380, -1.709, -1.587, 20.919, -0.175, 0.838, -0.562, 3.845, 3.601, 5.432, 19.457, 25.310, 19.430
19265, 0.777, 0.275, 0.650, 2.625, 1.099, 0.305, 23.797, -0.672, -0.721, -0.177, -3.235, -2.441, -3.723, 20.922, -0.171, 0.832, -0.557, 6.042, 6.714, 3.601, 19.469, 25.310, 19.430
19297, 0.775, 0.279, 0.644, 1.770, 0.488, 0.305, 23.768, -0.674, -0.718, -0.181, 1.587, -1.099, -2.197, 20.955, -0.167, 0.854, -0.559, 10.864, 3.113, 9.521, 19.457, 25.310, 19.430
19331, 0.786, 0.280, 0.641, 1.343, -0.244, 0.061, 23.789, -0.675, -0.722, -0.172, 4.883, 0.183, -2.502, 20.919, -0.151, 0.840, -0.564, 7.812, 5.676, 3.601, 19.469, 25.250, 19.430
19363, 0.791, 0.277, 0.644, 0.366, -0.183, 0.305, 23.792, -0.672, -0.723, -0.157, 3.662, 0.244, -3.357, 20.922, -0.182, 0.840, -0.571, 0.854, 5.066, -3.235, 19.466, 25.250, 19.490
19395, 0.793, 0.278, 0.641, 0.488, 0.061, 0.549, 23.786, -0.671, -0.726, -0.164, 2.136, -0.610, -0.977, 20.931, -0.182, 0.845, -0.552, 8.484, 4.211, 4.333, 19.469, 25.250, 19.490
19429, 0.794, 0.273, 0.643, -0.305, 0.244, 0.671, 23.780, -0.674, -0.730, -0.167, 1.038, -0.305, -2.136, 20.928, -0.153, 0.848, -0.577, 12.512, 2.502, 7.874, 19.457, 25.310, 19.490
19462, 0.789, 0.273, 0.644, -0.916, 0.427, 1.038, 23.803, -0.662, -0.727, -0.173, 0.977, 0.854, -3.235, 20.934, -0.168, 0.833, -0.578, 5.066, 5.005, -1.038, 19.460, 25.310, 19.470
19494, 0.790, 0.263, 0.644, -1.221, 0.977, 0.488, 23.780, -0.659, -0.727, -0.173, 1.465, 0.610, -0.610, 20.928, -0.174, 0.832, -0.569, 10.010, 2.502, 7.202, 19.478, 25.310, 19.470
19528, 0.786, 0.260, 0.644, -1.892, 0.854, 0.366, 23.786, -0.662, -0.730, -0.171, 0.061, 1.282, -4.211, 20.937, -0.150, 0.836, -0.597, 16.541, 1.831, 12.329, 19.469, 25.250, 19.470
19560, 0.789, 0.254, 0.642, -1.526, 1.282, -0.061, 23.762, -0.642, -0.729, -0.171, 1.160, 2.441, -4.883, 20.934, -0.145, 0.824, -0.584, 7.874, 1.953, 1.953, 19.478, 25.250, 19.430
19592, 0.789, 0.260, 0.643, -1.221, 2.014, -0.916, 23.795, -0.651, -0.727, -0.167, 1.038, 2.014, -1.038, 20.937, -0.160, 0.826, -0.578, 9.949, 3.174, 4.456, 19.484, 25.250, 19.430
19627, 0.783, 0.267, 0.639, -1.465, 2.014, -0.671, 23.815, -0.656, -0.729, -0.171, 0.854, 1.892, -0.610, 20.922, -0.161, 0.837, -0.576, 15.015, 0.610, 10.803, 19.463, 25.230, 19.430
19659, 0.779, 0.261, 0.645, -1.587, 2.625, -0.671, 23.797, -0.651, -0.722, -0.175, 1.160, 2.258, -1.831, 20.928, -0.117, 0.830, -0.599, 16.052, -2.197, 17.029, 19.493, 25.230, 19.470
19691, 0.779, 0.269, 0.643, -1.038, 2.502, -0.732, 23.777, -0.656, -0.722, -0.173, 1.343, 2.502, -1.404, 20.958, -0.113, 0.834, -0.601, 7.812, 3.784, 6.531, 19.490, 25.230, 19.470
19725, 0.781, 0.267, 0.642, -1.343, 2.258, -0.427, 23.824, -0.651, -0.725, -0.179, 1.343, 1.892, -0.854, 20.955, -0.146, 0.833, -0.575, 3.357, 4.150, -0.427, 19.490, 25.190, 19.470
19757, 0.781, 0.268, 0.642, -1.343, 1.892, -0.366, 23.789, -0.661, -0.728, -0.180, 0.916, 1.709, -0.488, 20.940, -0.132, 0.824, -0.587, 9.216, 4.700, 4.578, 19.496, 25.190, 19.430
19792, 0.784, 0.271, 0.640, -1.831, 1.770, -0.122, 23.815, -0.655, -0.729, -0.173, 0.916, 2.136, -2.136, 20.940, -0.139, 0.829, -0.583, 7.019, 2.869, 4.150, 19.493, 25.190, 19.430
19824, 0.785, 0.260, 0.645, -2.014, 2.258, -0.305, 23.803, -0.654, -0.730, -0.179, 2.197, 2.014, 0.305, 20.910, -0.127, 0.833, -0.590, 11.292, 0.793, 5.005, 19.478, 25.130, 19.430
19856, 0.782, 0.263, 0.647, -2.136, 1.282, 0.000, 23.806, -0.656, -0.735, -0.180, 1.831, 2.991, -2.625, 20.946, -0.124, 0.832, -0.602, 11.230, 0.183, 6.470, 19.502, 25.130, 19.470
19890, 0.788, 0.257, 0.644, -2.197, 1.343, -0.122, 23.806, -0.648, -0.737, -0.174, 2.380, 2.930, -3.784, 20.928, -0.115, 0.840, -0.613, 8.179, 3.113, 1.099, 19.499, 25.130, 19.470
19922, 0.793, 0.257, 0.638, -1.160, 1.648, -0.610, 23.786, -0.641, -0.735, -0.165, 2.380, 1.526, 0.183, 20.925, -0.145, 0.832, -0.601, 2.991, 3.784, -3.906, 19.484, 25.110, 19.470
19954, 0.792, 0.265, 0.646, -0.488, 1.892, -0.916, 23.800, -0.652, -0.737, -0.176, 2.441, 0.977, 2.319, 20.931, -0.147, 0.840, -0.590, 3.723, 5.249, 3.296, 19.490, 25.110, 19.490
19989, 0.787, 0.265, 0.648, -0.610, 2.380, -1.282, 23.795, -0.648, -0.733, -0.174, 7.263, -0.854, 9.033, 20.931, -0.114, 0.853, -0.597, 3.174, 4.028, 1.648, 19.478, 25.110, 19.490
20021, 0.789, 0.256, 0.644, 0.244, 2.075, -1.465, 23.792, -0.644, -0.727, -0.169, 10.437, -3.235, 17.639, 20.961, -0.109, 0.832, -0.604, 1.709, 1.587, -6.836, 19.475, 25.110, 19.490
20053, 0.782, 0.246, 0.642, 2.258, 2.136, -1.404, 23.797, -0.648, -0.715, -0.155, 8.789, -6.165, 22.095, 20.934, -0.129, 0.845, -0.611, -0.610, 6.897, -6.897, 19.481, 25.110, 19.450
20087, 0.772, 0.271, 0.646, 3.540, 1.343, -1.526, 23.815, -0.679, -0.720, -0.208, 12.024, -2.747, 22.888, 20.961, -0.136, 0.835, -0.575, -10.620, 4.395, -13.184, 19.487, 25.110, 19.450
20119, 0.770, 0.275, 0.650, 1.770, 1.831, -1.587, 23.812, -0.693, -0.715, -0.193, 17.273, 5.005, 9.521, 20.943, -0.139, 0.820, -0.571, -4.333, 5.798, -9.888, 19.472, 25.010, 19.450
20152, 0.770, 0.260, 0.646, 0.916, 1.160, -0.488, 23.800, -0.670, -0.692, -0.158, 21.362, 7.263, 3.967, 20.952, -0.157, 0.819, -0.562, 0.427, 5.615, -7.141, 19.496, 25.010, 19.450
20186, 0.778, 0.274, 0.636, 0.916, 1.099, -1.282, 23.803, -0.705, -0.686, -0.110, 14.893, 2.197, 6.104, 20.943, -0.144, 0.833, -0.557, 9.460, 2.441, 2.625, 19.487, 25.010, 19.450
20218, 0.787, 0.284, 0.634, 0.122, 0.916, 0.183, 23.792, -0.709, -0.697, -0.124, 3.906, -1.282, 4.150, 20.934, -0.154, 0.837, -0.555, 6.714, 3.784, -3.052, 19.469, 24.990, 19.450
20253, 0.787, 0.283, 0.637, -1.160, 0.977, 1.099, 23.786, -0.693, -0.702, -0.130, 0.122, -0.732, -1.282, 20.940, -0.159, 0.841, -0.561, 11.108, 5.188, 4.211, 19.487, 24.990, 19.510
20286, 0.791, 0.278, 0.633, -1.587, 1.770, 1.404, 23.815, -0.699, -0.698, -0.126, 2.319, 1.038, -1.099, 20.946, -0.154, 0.842, -0.561, 12.512, 3.662, 5.371, 19.487, 24.990, 19.510
20319, 0.787, 0.271, 0.642, -1.831, 2.258, 1.709, 23.812, -0.697, -0.697, -0.129, -2.991, 0.305, -4.089, 20.916, -0.136, 0.833, -0.568, 15.320, 4.333, 6.714, 19.484, 25.050, 19.510
20354, 0.785, 0.274, 0.642, -1.526, 2.380, 1.587, 23.818, -0.688, -0.698, -0.143, -3.418, -0.671, -1.587, 20.949, -0.130, 0.856, -0.591, 18.860, 3.784, 8.423, 19.490, 25.050, 19.470
20387, 0.785, 0.270, 0.642, -1.343, 3.296, 1.038, 23.818, -0.693, -0.702, -0.141, -0.305, 1.404, -0.671, 20.949, -0.119, 0.836, -0.605, 5.859, 5.371, -3.540, 19.472, 25.050, 19.470
20420, 0.784, 0.277, 0.643, -1.343, 3.174, 0.977, 23.824, -0.697, -0.698, -0.143, -0.549, 1.831, -1.160, 20.943, -0.158, 0.824, -0.547, 5.920, 4.944, 0.000, 19.502, 25.010, 19.470
20455, 0.784, 0.269, 0.640, -2.380, 2.869, 1.465, 23.806, -0.689, -0.704, -0.140, -1.648, 1.587, -2.014, 20.952, -0.161, 0.817, -0.566, 21.545, 2.014, 4.639, 19.493, 25.010, 19.490
20488, 0.782, 0.259, 0.641, -3.052, 2.625, 1.221, 23.797, -0.684, -0.703, -0.140, -1.770, 1.099, -2.380, 20.967, -0.160, 0.817, -0.591, 25.269, -4.333, 11.353, 19.484, 25.010, 19.490
20521, 0.779, 0.262, 0.642, -2.808, 2.502, 0.977, 23.830, -0.679, -0.700, -0.152, -1.099, 0.916, -0.854, 20.937, -0.149, 0.804, -0.584, 24.048, -17.639, 9.949, 19.499, 24.990, 19.490
20556, 0.775, 0.254, 0.646, -3.113, 2.380, 0.244, 23.789, -0.683, -0.697, -0.142, -1.404, 1.343, -2.380, 20.952, -0.117, 0.816, -0.647, 25.879, -15.320, 21.240, 19.496, 24.990, 19.450
20589, 0.775, 0.261, 0.646, -2.502, 1.160, 0.183, 23.789, -0.678, -0.698, -0.156, -0.916, 0.122, 0.000, 20.955, -0.126, 0.800, -0.598, 13.428, -14.587, -3.113, 19.493, 24.990, 19.450
20622, 0.773, 0.265, 0.647, -2.625, 0.061, -0.122, 23.809, -0.685, -0.700, -0.160, 1.709, 0.793, -0.427, 20.943, -0.180, 0.788, -0.605, 14.954, -23.376, 1.831, 19.490, 24.930, 19.450
20657, 0.776, 0.250, 0.646, -2.991, 0.427, -0.122, 23.812, -0.688, -0.696, -0.139, 2.380, 0.549, -1.404, 20.955, -0.142, 0.802, -0.609, 18.860, -29.968, 7.690, 19.493, 24.930, 19.490
20690, 0.783, 0.271, 0.638, -2.930, 0.061, 0.916, 23.815, -0.687, -0.697, -0.155, -1.343, -0.671, -4.517, 20.946, -0.224, 0.789, -0.569, 7.019, -47.424, -15.320, 19.499, 24.930, 19.490
20725, 0.787, 0.267, 0.641, -3.357, 0.671, 0.610, 23.783, -0.693, -0.702, -0.142, 1.343, 0.366, -1.709, 20.967, -0.219, 0.796, -0.606, 14.160, -72.571, 6.287, 19.502, 24.830, 19.490
20758, 0.788, 0.271, 0.641, -5.066, 1.953, 0.854, 23.812, -0.699, -0.698, -0.139, 1.404, 0.854, -0.977, 20.949, -0.233, 0.812, -0.591, 20.203, -84.717, 28.259, 19.481, 24.830, 19.470
20791, 0.789, 0.275, 0.642, -4.333, 2.991, 1.038, 23.830, -0.701, -0.704, -0.142, -1.038, 1.343, -2.991, 20.949, -0.157, 0.872, -0.696, 7.080, -29.053, -5.676, 19.496, 24.650, 19.470
20826, 0.790, 0.261, 0.651, -2.869, 3.357, 1.038, 23.827, -0.688, -0.710, -0.144, -1.953, 1.221, -3.235, 20.958, -0.334, 0.772, -0.553, -7.263, -44.006, -16.357, 19.508, 24.650, 19.470
20859, 0.791, 0.260, 0.650, -3.113, 4.150, 1.038, 23.806, -0.689, -0.709, -0.149, 0.488, 1.953, -2.991, 20.949, -0.271, 0.778, -0.546, 35.217, -76.843, 20.569, 19.484, 24.650, 19.490
20891, 0.799, 0.261, 0.642, -3.906, 4.578, 0.061, 23.803, -0.682, -0.715, -0.145, -0.427, 2.747, -2.502, 20.970, -0.212, 0.893, -0.666, -27.832, -18.005, -32.593, 19.511, 24.410, 19.490
20926, 0.792, 0.251, 0.652, -3.418, 4.272, -0.061, 23.821, -0.682, -0.713, -0.144, 0.305, 3.479, -1.099, 20.955, -0.260, 0.850, -0.630, -2.686, -30.334, -5.005, 19.502, 24.410, 19.490
20959, 0.785, 0.247, 0.652, -2.075, 4.028, -0.916, 23.827, -0.677, -0.708, -0.147, 0.549, 3.113, -0.122, 20.955, -0.327, 0.785, -0.521, -6.958, -88.684, -6.409, 19.499, 24.410, 19.510
20992, 0.781, 0.257, 0.652, -1.526, 3.723, -0.977, 23.815, -0.684, -0.706, -0.150, 0.366, 2.930, 0.000, 20.925, -0.317, 0.807, -0.515, -14.648, -7.690, -23.132, 19.514, 24.350, 19.510
21027, 0.773, 0.256, 0.649, -2.075, 3.662, -0.916, 23.806, -0.687, -0.700, -0.157, -0.244, 3.662, -1.770, 20.946, -0.367, 0.830, -0.500, -2.197, -0.427, 0.427, 19.514, 24.350, 19.490
21060, 0.765, 0.254, 0.653, -2.686, 3.357, -0.610, 23.830, -0.681, -0.701, -0.162, 1.221, 4.395, -3.723, 20.955, -0.333, 0.779, -0.499, -9.094, -38.269, -15.137, 19.502, 24.350, 19.490
21091, 0.768, 0.256, 0.650, -2.686, 2.441, -0.549, 23.818, -0.679, -0.698, -0.155, 2.014, 3.845, -4.028, 20.949, -0.399, 0.792, -0.458, -2.319, -60.120, -31.860, 19.502, 24.510, 19.490
21125, 0.771, 0.250, 0.654, -2.625, 2.136, 0.061, 23.821, -0.678, -0.706, -0.152, 1.282, 2.380, -2.502, 20.964, -0.322, 0.803, -0.484, 1.648, -20.203, -10.010, 19.514, 24.510, 19.490
21158, 0.773, 0.250, 0.652, -2.441, 2.258, -0.305, 23.833, -0.674, -0.711, -0.156, 1.343, 2.991, -3.845, 20.940, -0.410, 0.817, -0.452, 3.723, -5.066, 1.587, 19.505, 24.510, 19.490
21193, 0.781, 0.248, 0.651, -1.465, 1.709, -0.122, 23.842, -0.667, -0.711, -0.148, 2.136, 1.648, -1.953, 20.928, -0.353, 0.824, -0.477, 9.033, 5.859, 1.038, 19.514, 24.750, 19.490
21226, 0.782, 0.250, 0.654, -0.732, 1.709, 0.122, 23.824, -0.677, -0.712, -0.151, 0.916, 0.488, 0.305, 20.985, -0.380, 0.816, -0.487, 4.395, 4.822, -1.526, 19.520, 24.750, 19.490
21259, 0.781, 0.256, 0.656, -0.244, 1.709, 0.305, 23.827, -0.679, -0.714, -0.156, 0.122, 0.732, -0.854, 20.937, -0.406, 0.813, -0.454, 5.005, 3.601, 0.122, 19.502, 24.750, 19.490
21294, 0.784, 0.257, 0.653, -0.671, 1.770, 0.244, 23.830, -0.680, -0.715, -0.151, 1.526, 1.221, -1.465, 20.982, -0.428, 0.800, -0.435, 5.798, 9.155, 5.127, 19.520, 24.750, 19.490
21327, 0.785, 0.257, 0.653, -0.549, 2.441, 0.000, 23.818, -0.681, -0.711, -0.150, -0.122, 1.099, -1.160, 20.946, -0.431, 0.810, -0.437, 8.728, -12.634, 4.456, 19.505, 24.750, 19.490
21360, 0.786, 0.262, 0.652, -1.038, 2.563, 0.183, 23.845, -0.678, -0.714, -0.155, -0.183, 1.038, -0.183, 20.964, -0.387, 0.815, -0.450, 13.306, -0.793, 4.944, 19.517, 24.750, 19.490
21395, 0.777, 0.262, 0.659, -1.831, 2.441, 0.183, 23.848, -0.683, -0.714, -0.163, -0.183, 1.709, -2.197, 20.934, -0.417, 0.808, -0.463, 11.719, 4.089, 5.249, 19.523, 24.770, 19.490
21428, 0.780, 0.254, 0.658, -1.709, 2.686, 0.244, 23.842, -0.673, -0.714, -0.156, 0.061, 2.258, -3.357, 20.970, -0.373, 0.807, -0.459, 5.493, 11.597, 5.859, 19.502, 24.770, 19.490
21461, 0.771, 0.254, 0.660, -1.465, 2.258, 0.122, 23.818, -0.676, -0.715, -0.169, -0.671, 1.160, -1.709, 20.928, -0.366, 0.819, -0.443, 6.470, 0.916, 1.892, 19.517, 24.770, 19.490
21496, 0.780, 0.253, 0.657, -1.953, 2.197, -0.122, 23.845, -0.675, -0.717, -0.163, 2.197, 2.563, -1.892, 20.961, -0.397, 0.818, -0.467, 10.742, 6.592, 0.488, 19.508, 24.870, 19.490
21529, 0.778, 0.248, 0.654, -2.075, 2.808, -0.183, 23.824, -0.673, -0.712, -0.153, 1.953, 2.502, -1.953, 20.976, -0.403, 0.829, -0.454, 8.240, -0.977, 7.141, 19.508, 24.870, 19.510
21562, 0.776, 0.255, 0.658, -1.404, 2.502, -0.122, 23.836, -0.669, -0.712, -0.161, -0.244, 1.343, -0.977, 20.973, -0.391, 0.803, -0.453, 8.118, 4.761, 9.583, 19.529, 24.870, 19.510
21597, 0.769, 0.253, 0.662, -1.953, 2.563, 0.122, 23.836, -0.667, -0.712, -0.171, 0.977, 1.770, -1.343, 20.967, -0.364, 0.812, -0.461, 10.620, 10.681, 4.272, 19.529, 24.890, 19.510
21630, 0.764, 0.244, 0.663, -1.831, 2.441, 0.000, 23.821, -0.663, -0.708, -0.170, 1.099, 1.648, -0.854, 20.973, -0.360, 0.819, -0.488, 11.047, 4.333, -0.183, 19.529, 24.890, 19.470
21665, 0.761, 0.248, 0.666, -1.099, 1.831, -0.183, 23.818, -0.670, -0.706, -0.173, 1.709, 1.465, -1.099, 20.988, -0.366, 0.813, -0.479, 4.028, 4.028, 0.549, 19.505, 24.890, 19.470
21698, 0.767, 0.247, 0.658, -0.916, 1.587, 0.244, 23.830, -0.667, -0.707, -0.167, 2.380, 1.587, -1.282, 20.967, -0.377, 0.813, -0.461, 2.747, 4.578, 0.183, 19.523, 24.870, 19.470
21731, 0.774, 0.252, 0.654, -0.977, 1.404, 0.244, 23.854, -0.668, -0.712, -0.160, 2.197, 1.404, -0.916, 20.991, -0.378, 0.805, -0.448, 7.324, 3.479, -2.075, 19.517, 24.870, 19.490
21766, 0.777, 0.252, 0.658, -0.793, 1.831, -0.061, 23.827, -0.669, -0.709, -0.161, 1.160, 1.160, -0.610, 20.970, -0.392, 0.817, -0.465, 8.484, 4.700, -0.183, 19.499, 24.870, 19.490
21799, 0.784, 0.259, 0.652, -1.343, 2.014, 0.000, 23.836, -0.678, -0.720, -0.157, 1.526, 2.075, -1.099, 20.970, -0.377, 0.822, -0.448, 5.981, 4.517, 0.427, 19.523, 24.870, 19.490
21832, 0.779, 0.251, 0.655, -1.770, 2.319, 0.793, 23.854, -0.666, -0.714, -0.157, 1.404, 2.380, -2.136, 20.985, -0.385, 0.808, -0.462, 9.033, 3.723, -2.930, 19.532, 24.870, 19.510
21868, 0.772, 0.245, 0.661, -0.854, 2.319, 0.549, 23.821, -0.666, -0.716, -0.165, -0.488, 0.549, 0.244, 20.979, -0.382, 0.816, -0.471, 6.653, 4.761, -0.488, 19.505, 24.870, 19.510
21901, 0.771, 0.251, 0.661, -0.671, 2.136, 0.305, 23.854, -0.667, -0.720, -0.171, 0.793, 1.038, -1.160, 20.979, -0.387, 0.812, -0.463, 6.531, 5.676, 1.587, 19.511, 24.870, 19.510
21934, 0.776, 0.247, 0.662, -0.793, 2.075, -0.061, 23.836, -0.666, -0.717, -0.165, 1.465, 1.099, -0.244, 20.988, -0.381, 0.817, -0.461, 6.775, 5.188, 0.916, 19.547, 24.870, 19.450
21969, 0.777, 0.253, 0.658, -0.793, 1.831, -0.061, 23.842, -0.667, -0.720, -0.164, 0.793, 1.038, -0.793, 20.967, -0.390, 0.816, -0.464, 6.897, 3.662, -1.160, 19.520, 24.810, 19.450
22002, 0.775, 0.253, 0.655, -0.916, 1.953, -0.305, 23.830, -0.670, -0.719, -0.162, 1.831, 1.526, -0.549, 20.967, -0.383, 0.812, -0.459, 6.287, 5.554, 2.014, 19.535, 24.810, 19.450
22035, 0.773, 0.247, 0.657, -0.854, 2.014, -0.122, 23.839, -0.666, -0.715, -0.164, 0.732, 1.343, -1.099, 20.985, -0.370, 0.822, -0.462, 5.127, 5.493, 2.075, 19.529, 24.810, 19.470
22070, 0.771, 0.253, 0.661, -0.549, 1.770, 0.000, 23.851, -0.671, -0.717, -0.168, 0.732, 0.488, -0.366, 20.985, -0.378, 0.809, -0.461, 4.700, 3.296, -1.404, 19.529, 24.810, 19.470
22103, 0.772, 0.254, 0.658, -0.854, 1.404, 0.183, 23.848, -0.669, -0.716, -0.167, 1.343, 1.099, -1.648, 20.964, -0.377, 0.817, -0.463, 6.042, 3.418, -2.197, 19.532, 24.810, 19.470
22136, 0.773, 0.249, 0.660, -0.610, 1.465, 0.427, 23.848, -0.668, -0.714, -0.162, 1.526, 0.977, -1.221, 20.997, -0.372, 0.820, -0.464, 5.554, 2.197, -3.723, 19.541, 24.810, 19.490
22171, 0.771, 0.259, 0.656, -0.427, 1.282, 0.488, 23.833, -0.672, -0.713, -0.166, 1.526, 0.610, -0.671, 20.985, -0.388, 0.812, -0.464, 3.723, 2.319, -2.930, 19.535, 24.810, 19.490
22204, 0.771, 0.253, 0.655, -0.916, 1.282, 0.427, 23.842, -0.666, -0.714, -0.160, 2.441, 0.854, -1.648, 20.988, -0.390, 0.807, -0.448, 4.639, 3.540, -1.709, 19.538, 24.810, 19.510
22239, 0.772, 0.251, 0.650, -0.977, 1.526, 0.549, 23.851, -0.662, -0.714, -0.161, 1.526, 0.549, -0.427, 20.976, -0.377, 0.803, -0.452, 9.583, 4.028, -2.014, 19.538, 24.810, 19.510
22272, 0.761, 0.245, 0.657, -0.793, 1.160, 0.366, 23.860, -0.661, -0.708, -0.169, 1.709, 0.000, -0.671, 21.006, -0.382, 0.814, -0.472, 9.155, 3.113, -3.113, 19.511, 24.810, 19.510
22305, 0.762, 0.246, 0.657, -0.610, 0.793, 0.244, 23.854, -0.661, -0.708, -0.169, 2.686, -0.183, -0.305, 20.973, -0.376, 0.798, -0.457, 6.348, 2.441, -2.319, 19.535, 24.810, 19.490
22340, 0.762, 0.253, 0.651, -0.671, 0.061, 0.183, 23.863, -0.664, -0.707, -0.168, 3.113, -0.732, 0.671, 20.997, -0.376, 0.804, -0.445, 8.423, 0.610, -5.371, 19.532, 24.810, 19.490
22373, 0.765, 0.257, 0.653, -0.916, -0.244, 0.183, 23.863, -0.675, -0.709, -0.161, 4.028, 0.000, 0.427, 20.994, -0.387, 0.803, -0.456, 9.399, -0.305, -7.202, 19.517, 24.830, 19.490
22406, 0.769, 0.253, 0.652, -1.160, -0.183, 0.610, 23.851, -0.673, -0.708, -0.157, 4.211, -0.427, -0.305, 20.988, -0.390, 0.812, -0.453, 6.958, -0.549, -7.141, 19.526, 24.830, 19.490
22441, 0.770, 0.259, 0.649, -0.732, 0.183, 0.671, 23.854, -0.673, -0.711, -0.157, 3.479, -0.488, 0.061, 20.988, -0.406, 0.806, -0.455, 5.371, 1.099, -4.822, 19.523, 24.830, 19.490
22472, 0.775, 0.256, 0.654, -0.977, -0.183, 0.427, 23.860, -0.674, -0.716, -0.150, 3.845, -0.610, -0.427, 21.015, -0.401, 0.806, -0.451, 5.310, 1.953, -2.747, 19.547, 24.810, 19.490
22504, 0.790, 0.256, 0.644, -1.099, -0.549, 0.854, 23.857, -0.673, -0.723, -0.144, 2.930, 0.366, -2.136, 20.964, -0.412, 0.816, -0.447, 4.089, 1.831, -2.136, 19.526, 24.810, 19.490
22538, 0.800, 0.257, 0.646, -1.282, 0.244, 0.610, 23.848, -0.676, -0.729, -0.141, 2.686, 1.099, -1.892, 20.994, -0.427, 0.810, -0.438, 5.615, 3.296, -0.366, 19.538, 24.810, 19.490
22570, 0.804, 0.254, 0.646, -1.892, 0.854, 0.000, 23.839, -0.676, -0.734, -0.138, 3.113, 1.953, -1.648, 20.976, -0.419, 0.821, -0.440, 8.667, 2.991, -2.502, 19.538, 24.770, 19.490
22602, 0.803, 0.259, 0.655, -2.075, 1.648, 0.000, 23.854, -0.684, -0.734, -0.143, 1.343, 2.258, -0.793, 21.000, -0.426, 0.822, -0.456, 8.240, 1.221, -3.967, 19.529, 24.770, 19.450
22636, 0.806, 0.255, 0.651, -2.258, 2.197, -0.183, 23.863, -0.676, -0.736, -0.139, 1.526, 2.502, -1.404, 21.000, -0.432, 0.813, -0.447, 7.141, 2.991, -0.244, 19.550, 24.770, 19.450
22668, 0.799, 0.253, 0.652, -2.441, 2.869, -0.366, 23.881, -0.676, -0.729, -0.143, 0.732, 3.052, -0.671, 20.994, -0.421, 0.814, -0.449, 8.606, 2.319, -1.892, 19.541, 24.750, 19.450
22702, 0.793, 0.252, 0.654, -2.686, 2.869, -0.793, 23.857, -0.673, -0.732, -0.148, 1.343, 3.174, -0.732, 20.991, -0.418, 0.808, -0.450, 8.667, 4.517, -1.465, 19.517, 24.750, 19.470
22734, 0.793, 0.245, 0.654, -2.197, 2.869, -0.671, 23.896, -0.667, -0.726, -0.146, 1.404, 2.991, 0.549, 20.988, -0.428, 0.805, -0.450, 7.385, 2.991, -0.549, 19.547, 24.750, 19.470
22766, 0.783, 0.246, 0.647, -1.953, 2.747, -0.549, 23.845, -0.661, -0.721, -0.146, 1.221, 3.296, -1.465, 20.994, -0.409, 0.802, -0.450, 7.202, 3.296, -2.197, 19.553, 24.750, 19.470
22800, 0.774, 0.245, 0.646, -0.977, 2.502, -0.732, 23.857, -0.657, -0.712, -0.149, 2.197, 2.319, 0.610, 21.000, -0.403, 0.804, -0.461, 5.859, 2.380, -5.249, 19.565, 24.750, 19.490
22832, 0.767, 0.254, 0.656, -0.610, 2.136, -0.488, 23.851, -0.675, -0.706, -0.151, 1.953, 1.770, 1.526, 20.994, -0.400, 0.809, -0.442, 5.249, 3.113, -4.028, 19.520, 24.750, 19.490
22864, 0.764, 0.254, 0.654, -1.404, 1.343, -0.061, 23.875, -0.669, -0.714, -0.167, 1.770, 2.075, -1.038, 20.994, -0.359, 0.832, -0.463, 1.709, 12.024, -6.592, 19.562, 24.750, 19.490
22898, 0.767, 0.248, 0.660, -1.709, 0.793, 0.000, 23.866, -0.657, -0.713, -0.182, 4.150, 2.258, -0.366, 21.003, -0.404, 0.807, -0.473, 6.958, 3.845, -6.592, 19.523, 24.750, 19.470
22930, 0.777, 0.246, 0.654, -1.831, 0.427, -0.061, 23.860, -0.668, -0.722, -0.145, 5.676, 3.052, -0.977, 20.997, -0.424, 0.796, -0.453, 4.272, 6.653, -4.578, 19.526, 24.750, 19.470
22962, 0.784, 0.242, 0.652, -1.343, 0.549, 0.610, 23.860, -0.664, -0.722, -0.146, 3.845, 1.953, -1.099, 20.994, -0.405, 0.815, -0.470, 6.592, 10.254, -6.042, 19.532, 24.590, 19.470
22996, 0.790, 0.246, 0.647, -0.793, 0.977, 0.183, 23.857, -0.664, -0.721, -0.145, 4.028, 2.319, -0.854, 21.000, -0.416, 0.802, -0.460, 6.042, 14.221, 1.221, 19.538, 24.590, 19.490
23028, 0.786, 0.246, 0.649, -0.183, 1.404, 0.427, 23.863, -0.666, -0.716, -0.140, 2.197, 1.648, -0.916, 20.988, -0.391, 0.820, -0.460, 8.606, 17.578, 3.174, 19.526, 24.590, 19.490
23060, 0.781, 0.248, 0.651, 0.366, 2.014, 0.671, 23.881, -0.665, -0.717, -0.147, 0.244, 0.732, -0.549, 21.015, -0.406, 0.792, -0.475, 3.906, 22.278, 17.090, 19.550, 24.470, 19.490
23094, 0.779, 0.254, 0.657, 0.488, 2.136, 0.793, 23.848, -0.671, -0.718, -0.153, -0.061, 0.977, -1.038, 21.018, -0.390, 0.802, -0.448, 8.972, 31.372, 20.142, 19.544, 24.470, 19.470
23126, 0.781, 0.257, 0.653, 0.000, 2.380, 0.732, 23.860, -0.673, -0.716, -0.151, 0.000, 1.221, -1.160, 21.000, -0.384, 0.817, -0.477, 8.545, 37.170, 24.719, 19.541, 24.470, 19.470
23158, 0.784, 0.255, 0.647, -0.427, 2.441, 0.977, 23.872, -0.668, -0.722, -0.152, -0.427, 1.221, -1.099, 21.009, -0.382, 0.807, -0.472, 11.536, 43.091, 24.902, 19.532, 24.270, 19.470
23192, 0.789, 0.255, 0.650, -0.854, 2.808, 0.977, 23.890, -0.669, -0.726, -0.152, 0.244, 2.075, -1.404, 20.997, -0.429, 0.776, -0.428, 26.611, 23.621, 11.902, 19.538, 24.270, 19.490
23224, 0.787, 0.250, 0.647, -1.343, 3.174, 0.793, 23.872, -0.664, -0.723, -0.141, -0.366, 2.441, -2.869, 21.015, -0.366, 0.816, -0.503, 12.329, 5.920, 4.944, 19.538, 24.270, 19.490
23258, 0.785, 0.244, 0.646, -0.854, 3.296, 0.305, 23.869, -0.658, -0.723, -0.147, -1.953, 1.282, -0.916, 20.997, -0.333, 0.846, -0.517, 12.390, 7.080, 11.597, 19.532, 24.330, 19.490
23290, 0.780, 0.245, 0.652, 0.244, 3.601, -0.061, 23.872, -0.662, -0.721, -0.155, -0.916, 1.465, 0.122, 21.018, -0.297, 0.849, -0.541, -0.244, 19.104, 19.836, 19.562, 24.330, 19.490
23322, 0.773, 0.252, 0.656, 0.793, 2.991, 0.061, 23.851, -0.671, -0.713, -0.151, -1.282, 0.549, 0.122, 21.012, -0.273, 0.817, -0.515, 0.305, 35.034, 23.804, 19.550, 24.330, 19.490
23356, 0.775, 0.254, 0.656, 0.854, 1.953, 0.610, 23.875, -0.666, -0.722, -0.165, 0.061, 0.793, -0.122, 21.027, -0.293, 0.820, -0.508, 12.268, 39.673, 24.292, 19.553, 24.510, 19.490
23389, 0.775, 0.254, 0.653, 0.610, 1.770, 0.122, 23.878, -0.663, -0.718, -0.160, 1.709, 1.465, -1.038, 21.003, -0.321, 0.821, -0.498, 14.771, 27.039, 20.996, 19.547, 24.510, 19.470
23421, 0.775, 0.251, 0.649, 0.427, 1.709, 0.000, 23.872, -0.664, -0.717, -0.154, 1.404, 0.732, -0.366, 21.003, -0.300, 0.830, -0.520, 11.047, 12.817, 28.198, 19.547, 24.510, 19.470
23455, 0.780, 0.259, 0.648, 0.671, 1.160, -0.122, 23.875, -0.670, -0.723, -0.150, 0.916, 0.549, -0.671, 21.027, -0.228, 0.838, -0.506, -1.343, 9.033, 23.682, 19.541, 24.650, 19.470
23487, 0.788, 0.266, 0.643, 0.427, 1.282, 0.305, 23.884, -0.671, -0.723, -0.144, -0.427, 0.305, -1.099, 21.015, -0.212, 0.839, -0.497, 8.606, 10.132, 16.907, 19.535, 24.650, 19.470
23519, 0.780, 0.257, 0.652, 0.122, 2.075, 0.183, 23.857, -0.668, -0.721, -0.157, 0.366, 1.099, -1.221, 21.021, -0.211, 0.856, -0.545, 14.771, 12.451, 8.545, 19.538, 24.650, 19.470
23554, 0.782, 0.263, 0.649, 0.061, 2.075, 0.061, 23.884, -0.671, -0.721, -0.152, 1.160, 1.343, -1.282, 21.012, -0.204, 0.853, -0.534, 1.709, 17.395, -2.625, 19.517, 24.750, 19.470
23586, 0.781, 0.261, 0.652, -0.244, 2.075, 0.244, 23.872, -0.669, -0.723, -0.159, 1.038, 1.343, -1.404, 21.006, -0.204, 0.842, -0.524, 0.549, 23.315, -8.179, 19.538, 24.750, 19.490
23618, 0.784, 0.258, 0.652, -0.061, 1.953, 0.122, 23.869, -0.673, -0.721, -0.158, 0.488, 0.671, -0.122, 21.021, -0.209, 0.851, -0.525, 4.089, 30.762, -8.972, 19.544, 24.750, 19.490
23652, 0.786, 0.261, 0.649, -0.610, 2.197, 0.183, 23.863, -0.667, -0.724, -0.159, 0.854, 1.282, -1.465, 21.009, -0.224, 0.843, -0.539, 12.329, 31.799, -5.737, 19.532, 24.890, 19.490
23684, 0.780, 0.260, 0.652, -0.610, 2.319, 0.061, 23.884, -0.665, -0.722, -0.155, 0.732, 1.770, -1.160, 21.039, -0.210, 0.837, -0.537, 8.362, 32.654, -5.615, 19.535, 24.890, 19.470
23719, 0.776, 0.260, 0.648, -1.099, 2.380, 0.122, 23.875, -0.667, -0.717, -0.160, 1.343, 2.380, -0.854, 21.018, -0.216, 0.837, -0.534, 8.972, 21.667, -4.211, 19.547, 24.890, 19.470
23751, 0.769, 0.252, 0.653, -1.282, 2.197, 0.061, 23.875, -0.661, -0.716, -0.164, 1.282, 1.831, -0.977, 21.018, -0.207, 0.833, -0.536, 8.362, 10.803, -2.808, 19.568, 24.930, 19.470
23783, 0.764, 0.250, 0.655, -0.854, 1.770, 0.000, 23.893, -0.657, -0.713, -0.167, 0.488, 0.793, -0.488, 21.012, -0.187, 0.824, -0.559, 8.728, 13.367, -3.662, 19.562, 24.930, 19.550
23817, 0.761, 0.246, 0.653, -0.671, 1.221, -0.122, 23.881, -0.651, -0.709, -0.169, 0.916, 0.427, -0.488, 21.027, -0.203, 0.819, -0.559, 9.338, 11.414, -1.221, 19.556, 24.930, 19.550
23849, 0.757, 0.245, 0.650, -0.122, 0.671, 0.000, 23.896, -0.648, -0.707, -0.168, 1.770, -0.549, 0.916, 21.033, -0.209, 0.804, -0.537, 4.578, 5.432, -0.671, 19.541, 25.010, 19.550
23881, 0.744, 0.260, 0.646, -0.427, -1.953, 0.916, 23.899, -0.660, -0.703, -0.174, 2.258, -1.709, 1.038, 21.000, -0.182, 0.786, -0.526, 5.737, -0.916, -1.709, 19.541, 25.010, 19.470
23916, 0.747, 0.246, 0.649, -1.892, -5.859, 3.296, 23.872, -0.653, -0.703, -0.166, 5.432, -1.831, -0.427, 21.000, -0.181, 0.773, -0.531, 14.465, -6.531, -10.010, 19.535, 25.010, 19.470
23949, 0.747, 0.259, 0.646, -1.770, -8.301, 3.845, 23.869, -0.655, -0.688, -0.174, 5.066, -3.601, 0.183, 21.027, -0.194, 0.813, -0.543, 21.912, -12.207, -14.221, 19.562, 24.990, 19.470
23982, 0.749, 0.241, 0.643, -1.648, -7.446, 4.333, 23.875, -0.652, -0.708, -0.171, 4.395, -5.005, -0.854, 21.030, -0.194, 0.806, -0.590, 13.550, -15.808, -14.404, 19.550, 24.990, 19.490
24017, 0.746, 0.225, 0.646, -0.793, -6.470, 3.784, 23.893, -0.636, -0.690, -0.163, 6.592, -6.470, -2.563, 21.030, -0.187, 0.773, -0.558, 3.845, -18.311, -19.043, 19.532, 24.990, 19.490
24050, 0.728, 0.215, 0.638, 1.404, -6.165, 3.418, 23.863, -0.625, -0.680, -0.175, 7.629, -9.399, -1.099, 21.015, -0.215, 0.771, -0.587, 13.855, -11.658, -23.315, 19.532, 24.990, 19.490
24083, 0.704, 0.220, 0.639, 2.869, -6.226, 2.869, 23.887, -0.619, -0.668, -0.188, 9.521, -12.329, 0.793, 21.033, -0.241, 0.774, -0.561, -0.732, -17.761, -23.682, 19.556, 24.990, 19.490
24118, 0.682, 0.203, 0.632, 5.188, -6.836, 2.502, 23.863, -0.614, -0.641, -0.179, 13.489, -13.916, -0.610, 21.030, -0.181, 0.754, -0.603, -7.446, -18.799, -20.508, 19.562, 24.990, 19.490
24151, 0.659, 0.205, 0.616, 9.949, -10.071, 3.113, 23.893, -0.603, -0.620, -0.166, 15.991, -18.250, -0.122, 21.030, -0.188, 0.724, -0.549, -13.306, -16.479, -16.357, 19.529, 24.950, 19.490
24186, 0.637, 0.213, 0.611, 12.817, -13.428, 4.883, 23.908, -0.605, -0.613, -0.177, 17.517, -19.531, -0.610, 21.045, -0.188, 0.700, -0.522, -15.320, -12.024, -17.395, 19.556, 24.950, 19.510
24219, 0.614, 0.211, 0.611, 13.916, -19.592, 6.470, 23.896, -0.605, -0.603, -0.182, 20.996, -25.146, -5.005, 21.030, -0.195, 0.685, -0.532, -22.034, -13.855, -19.897, 19.550, 24.950, 19.510
24252, 0.584, 0.200, 0.615, 16.418, -27.466, 9.583, 23.911, -0.598, -0.596, -0.187, 30.212, -33.752, -8.484, 21.030, -0.197, 0.660, -0.529, -25.452, -22.644, -30.090, 19.568, 24.890, 19.510
24287, 0.534, 0.233, 0.559, 21.790, -46.875, 12.634, 23.899, -0.617, -0.577, -0.164, 40.039, -44.312, -16.357, 21.048, -0.166, 0.699, -0.492, -50.964, -30.090, -50.354, 19.574, 24.890, 19.490
24320, 0.516, 0.229, 0.494, 20.325, -66.467, 18.799, 23.908, -0.562, -0.528, -0.146, 56.702, -50.171, -30.823, 21.024, -0.203, 0.622, -0.358, -57.922, -46.326, -56.396, 19.535, 24.890, 19.490
24353, 0.483, 0.203, 0.444, 18.250, -80.444, 23.987, 23.911, -0.511, -0.491, -0.115, 69.580, -55.542, -39.185, 21.051, -0.166, 0.562, -0.356, -63.416, -65.002, -61.768, 19.541, 24.770, 19.490
24388, 0.509, 0.198, 0.357, 18.127, -100.708, 29.602, 23.878, -0.476, -0.489, -0.056, 83.130, -64.209, -43.762, 21.036, -0.225, 0.578, -0.276, -63.721, -55.420, -62.500, 19.568, 24.770, 19.470
24421, 0.587, 0.202, 0.240, 15.625, -113.281, 29.968, 23.920, -0.429, -0.505, 0.051, 98.083, -63.416, -52.917, 21.069, -0.354, 0.574, -0.172, -71.899, -69.031, -59.082, 19.559, 24.770, 19.470
24456, 0.696, 0.166, 0.143, 10.864, -121.948, 29.846, 23.863, -0.384, -0.576, 0.202, 114.075, -49.927, -60.120, 21.042, -0.456, 0.549, -0.043, -72.266, -70.007, -55.054, 19.535, 24.470, 19.470
24489, 0.799, 0.114, 0.044, 7.080, -129.883, 28.198, 23.923, -0.326, -0.642, 0.354, 135.620, -40.405, -62.256, 21.060, -0.653, 0.603, 0.009, -72.693, -68.542, -66.956, 19.556, 24.470, 19.490
24522, 1.028, 0.117, 0.008, 5.371, -140.930, 21.912, 23.872, -0.351, -0.711, 0.463, 155.823, -37.964, -47.791, 21.018, -0.816, 0.714, 0.040, -69.458, -85.144, -66.528, 19.547, 24.650, 19.490
24557, 1.170, 0.171, -0.073, 3.601, -132.141, 9.399, 23.941, -0.442, -0.735, 0.675, 162.292, -30.151, -44.434, 21.066, -0.839, 0.833, 0.110, -74.951, -114.441, -65.857, 19.595, 24.650, 19.490
24590, 1.342, 0.259, -0.210, -5.676, -117.798, 8.972, 23.896, -0.456, -0.786, 0.853, 158.813, -16.418, -48.523, 21.063, -0.868, 0.861, 0.379, -71.899, -126.465, -46.387, 19.586, 24.650, 19.490
24623, 1.610, 0.241, -0.325, -19.470, -91.003, 16.357, 23.911, -0.438, -0.864, 1.118, 150.208, 12.024, -52.063, 21.030, -1.112, 0.956, 0.471, -37.537, -63.477, -33.081, 19.571, 24.890, 19.490
24665, 1.891, 0.271, -0.405, -14.404, -41.016, 8.606, 23.875, -0.567, -0.850, 1.401, 76.294, 18.738, -32.532, 21.024, -1.245, 1.049, 0.604, -16.235, -61.951, -6.470, 19.589, 24.890, 19.470
24697, 1.940, 0.271, -0.397, -12.024, 5.371, 2.808, 23.911, -0.611, -0.905, 1.466, 40.283, 24.536, -11.108, 21.054, -1.200, 1.054, 0.627, 16.907, 6.287, 7.690, 19.550, 24.890, 19.470
24732, 1.879, 0.215, -0.374, -4.578, 44.556, 1.038, 23.908, -0.670, -0.830, 1.632, -25.574, 34.729, -5.981, 21.045, -1.180, 1.060, 0.539, 52.551, 30.457, 13.245, 19.571, 25.010, 19.470
24764, 1.706, 0.235, -0.258, 4.150, 76.660, 1.465, 23.914, -0.602, -0.800, 1.314, -83.923, 14.893, 16.846, 21.027, -1.100, 1.042, 0.451, 59.814, 41.199, 21.606, 19.571, 25.010, 19.510
24796, 1.579, 0.235, -0.211, 5.249, 98.633, -3.723, 23.917, -0.573, -0.881, 1.026, -111.694, 15.259, 26.184, 21.012, -0.978, 0.976, 0.357, 53.833, 47.546, 23.926, 19.571, 25.010, 19.510
24830, 1.450, 0.250, -0.145, 1.770, 113.525, -4.272, 23.890, -0.539, -0.831, 0.848, -98.389, 36.560, 12.451, 21.054, -0.890, 0.916, 0.296, 62.561, 76.111, 28.748, 19.583, 24.990, 19.510
24862, 1.292, 0.205, -0.048, -2.441, 123.169, -5.188, 23.920, -0.499, -0.756, 0.796, -103.577, 47.302, 4.761, 21.036, -0.818, 0.835, 0.194, 75.623, 97.778, 39.917, 19.577, 24.990, 19.490
24895, 1.153, 0.150, -0.025, -4.517, 127.686, -8.057, 23.923, -0.427, -0.713, 0.687, -113.770, 47.485, 10.498, 21.033, -0.832, 0.766, 0.192, 82.703, 105.591, 48.157, 19.583, 24.990, 19.490
24929, 1.085, 0.162, 0.056, -6.165, 124.939, -9.766, 23.899, -0.422, -0.687, 0.559, -114.685, 50.110, 10.559, 21.024, -0.680, 0.718, 0.052, 84.106, 96.802, 45.959, 19.574, 24.830, 19.490
24961, 1.014, 0.096, 0.149, -6.775, 126.892, -9.521, 23.917, -0.419, -0.733, 0.504, -123.413, 47.058, 14.099, 21.033, -0.709, 0.636, -0.094, 77.576, 120.239, 47.791, 19.571, 24.830, 19.510
24995, 0.923, 0.054, 0.228, 0.854, 130.371, -9.888, 23.917, -0.355, -0.632, 0.392, -134.644, 32.166, 33.752, 21.039, -0.625, 0.659, -0.146, 85.693, 78.491, 47.424, 19.583, 24.830, 19.510
25027, 0.759, 0.096, 0.306, 9.583, 123.840, -17.090, 23.899, -0.379, -0.656, 0.130, -141.602, 21.667, 65.369, 21.045, -0.487, 0.635, -0.239, 89.661, 59.631, 36.987, 19.568, 25.010, 19.510
25060, 0.625, 0.138, 0.385, 10.254, 112.854, -20.264, 23.920, -0.474, -0.613, 0.020, -136.475, 18.799, 69.336, 21.021, -0.398, 0.607, -0.272, 54.871, 47.607, 16.663, 19.586, 25.010, 19.510
25094, 0.525, 0.195, 0.463, 10.803, 92.834, -18.066, 23.926, -0.525, -0.551, -0.117, -124.695, 10.681, 60.242, 21.024, -0.345, 0.572, -0.292, 38.391, 29.297, 10.864, 19.550, 25.010, 19.510
25126, 0.475, 0.232, 0.550, 6.897, 74.280, -12.695, 23.905, -0.565, -0.553, -0.211, -98.999, 12.512, 41.931, 21.024, -0.223, 0.629, -0.427, 47.058, 10.681, 13.367, 19.568, 25.070, 19.510
25158, 0.433, 0.221, 0.585, 0.488, 55.847, -7.812, 23.926, -0.568, -0.531, -0.224, -72.876, 9.033, 23.499, 21.006, -0.248, 0.591, -0.417, 48.279, 9.766, 7.935, 19.589, 25.070, 19.510
25192, 0.447, 0.213, 0.598, -3.418, 31.006, -2.380, 23.929, -0.554, -0.521, -0.219, -57.373, 4.944, 0.061, 21.024, -0.271, 0.595, -0.425, 49.805, -4.211, 18.066, 19.568, 25.070, 19.510
25225, 0.453, 0.192, 0.583, -4.822, 13.306, 2.502, 23.902, -0.505, -0.517, -0.255, -41.931, -2.319, -3.723, 21.009, -0.227, 0.595, -0.492, 37.659, 15.137, 18.372, 19.562, 24.690, 19.510
25257, 0.427, 0.157, 0.632, -3.479, 0.854, 4.578, 23.947, -0.525, -0.531, -0.286, -21.179, -6.775, -1.770, 21.048, -0.213, 0.596, -0.599, 27.039, 5.066, 5.188, 19.586, 24.690, 19.490
25291, 0.393, 0.152, 0.673, 4.089, -16.357, 4.333, 23.932, -0.557, -0.529, -0.304, -3.967, -16.907, -9.827, 21.021, -0.227, 0.608, -0.585, 14.587, 0.488, 3.357, 19.577, 24.690, 19.490
25323, 0.437, 0.147, 0.660, 9.460, -31.433, 7.874, 23.914, -0.542, -0.554, -0.266, 9.949, -30.090, -18.250, 21.027, -0.224, 0.610, -0.563, -0.427, -16.113, 6.653, 19.598, 24.650, 19.490
25357, 0.550, 0.185, 0.616, 15.808, -45.349, 12.146, 23.935, -0.564, -0.574, -0.205, 22.217, -34.424, -18.005, 21.009, -0.241, 0.646, -0.506, -7.507, -8.911, -2.930, 19.574, 24.650, 19.550
25390, 0.638, 0.212, 0.598, 17.090, -50.598, 14.587, 23.920, -0.590, -0.620, -0.149, 28.015, -38.391, -18.372, 21.000, -0.321, 0.680, -0.472, -20.569, -17.029, -13.245, 19.580, 24.650, 19.550
25423, 0.771, 0.238, 0.549, 15.503, -49.377, 15.259, 23.920, -0.604, -0.683, -0.067, 26.184, -35.767, -21.240, 21.027, -0.417, 0.719, -0.408, -25.208, -16.602, -10.559, 19.574, 24.950, 19.550
25458, 0.868, 0.250, 0.525, 12.695, -41.870, 14.526, 23.938, -0.622, -0.742, 0.006, 24.658, -30.518, -15.137, 21.033, -0.469, 0.769, -0.362, -17.273, -10.986, -9.033, 19.580, 24.950, 19.470
25491, 0.949, 0.248, 0.499, 9.583, -32.654, 13.245, 23.926, -0.620, -0.791, 0.062, 17.090, -25.024, -15.076, 21.027, -0.520, 0.813, -0.364, -8.911, -6.897, -7.324, 19.568, 24.950, 19.470
25524, 1.000, 0.226, 0.471, 8.667, -20.508, 11.292, 23.911, -0.601, -0.818, 0.105, 9.644, -19.592, -9.766, 21.033, -0.531, 0.834, -0.359, -7.568, -0.732, -7.874, 19.562, 25.050, 19.470
25559, 1.044, 0.226, 0.460, 10.010, -8.362, 7.507, 23.944, -0.609, -0.841, 0.140, -0.061, -14.404, -3.662, 21.024, -0.592, 0.852, -0.321, -8.545, 7.751, -6.775, 19.577, 25.050, 19.550
25592, 1.052, 0.239, 0.457, 9.216, 3.723, 4.028, 23.920, -0.625, -0.855, 0.135, -8.484, -8.484, 2.563, 21.042, -0.592, 0.850, -0.304, 1.587, 15.930, 1.831, 19.577, 25.050, 19.550
25625, 1.037, 0.256, 0.462, 7.446, 12.634, 2.258, 23.926, -0.640, -0.853, 0.122, -12.573, -3.357, 7.263, 21.039, -0.582, 0.862, -0.317, 11.414, 20.264, 3.113, 19.574, 25.110, 19.550
25660, 0.999, 0.253, 0.467, 5.188, 19.226, -0.183, 23.965, -0.645, -0.829, 0.106, -15.198, 1.404, 9.155, 21.036, -0.561, 0.853, -0.335, 15.320, 23.926, 7.690, 19.562, 25.110, 19.490
25693, 0.957, 0.262, 0.480, 4.211, 22.522, -1.038, 23.935, -0.643, -0.801, 0.074, -20.264, 2.258, 9.949, 21.039, -0.534, 0.835, -0.348, 19.470, 24.963, 11.230, 19.586, 25.110, 19.490
25728, 0.919, 0.268, 0.492, 1.099, 22.827, -5.493, 23.968, -0.647, -0.775, 0.050, -22.766, 4.944, 11.047, 21.033, -0.513, 0.833, -0.354, 22.400, 12.817, 2.869, 19.589, 25.110, 19.490
25761, 0.906, 0.270, 0.500, -1.770, 22.095, -8.667, 23.932, -0.657, -0.790, 0.028, -21.484, 6.592, 9.705, 21.048, -0.477, 0.823, -0.370, 21.423, 9.705, 6.897, 19.601, 25.110, 19.470
25794, 0.900, 0.280, 0.513, -1.282, 19.592, -5.371, 23.935, -0.680, -0.781, 0.028, -14.465, 8.789, 6.470, 21.054, -0.441, 0.846, -0.406, 21.057, 14.160, 10.193, 19.592, 25.110, 19.470
25829, 0.869, 0.290, 0.539, -1.404, 16.296, -2.136, 23.944, -0.688, -0.768, 0.003, -15.564, 6.287, 3.601, 21.048, -0.453, 0.830, -0.405, 12.024, 15.442, 8.606, 19.583, 25.170, 19.470
25862, 0.871, 0.272, 0.530, -2.441, 12.268, -1.587, 23.983, -0.660, -0.774, -0.009, -12.207, 5.554, -1.465, 21.060, -0.452, 0.824, -0.400, 12.390, 14.221, 9.888, 19.592, 25.170, 19.490
25895, 0.860, 0.273, 0.541, -3.662, 8.728, -0.671, 23.935, -0.666, -0.763, -0.012, -6.531, 6.958, -2.808, 21.057, -0.448, 0.830, -0.423, 13.184, 12.329, 10.498, 19.589, 25.170, 19.490
25930, 0.870, 0.278, 0.547, -4.822, 4.761, 0.610, 23.926, -0.702, -0.780, 0.014, -19.592, 3.784, -18.799, 21.066, -0.447, 0.823, -0.425, 1.831, 21.851, 31.433, 19.583, 25.250, 19.490
25963, 0.882, 0.242, 0.542, -6.470, 2.563, 2.441, 23.932, -0.592, -0.792, -0.046, -19.714, 1.526, -23.254, 21.048, -0.408, 0.830, -0.420, -0.244, 17.761, 27.100, 19.592, 25.250, 19.510
25996, 0.868, 0.229, 0.555, -5.066, 1.526, 1.465, 23.935, -0.602, -0.789, -0.054, -12.451, -0.916, -8.545, 21.063, -0.415, 0.825, -0.441, 12.268, 10.132, 12.695, 19.592, 25.310, 19.510
26031, 0.845, 0.223, 0.573, -3.479, 0.183, 1.282, 23.896, -0.607, -0.782, -0.081, -5.310, -3.052, -1.648, 21.063, -0.392, 0.812, -0.476, 13.977, 4.639, 7.874, 19.595, 25.310, 19.510
26064, 0.825, 0.220, 0.557, -1.465, -0.977, 1.282, 23.935, -0.605, -0.762, -0.069, -1.221, -2.441, -1.770, 21.054, -0.371, 0.801, -0.470, 7.019, 4.395, 12.512, 19.592, 25.310, 19.510
26099, 0.827, 0.220, 0.540, -0.549, -2.380, 2.014, 23.950, -0.581, -0.753, -0.069, -5.798, -3.540, -7.385, 21.048, -0.348, 0.786, -0.436, 2.930, 14.221, 15.991, 19.586, 25.470, 19.510
26132, 0.809, 0.205, 0.545, -0.366, -2.075, 2.686, 23.941, -0.562, -0.744, -0.089, -3.784, -2.747, -6.531, 21.039, -0.348, 0.770, -0.441, 6.775, 7.385, 10.254, 19.559, 25.470, 19.490
26165, 0.804, 0.193, 0.547, 0.122, -2.258, 1.831, 23.959, -0.552, -0.739, -0.097, 0.061, -1.953, -4.395, 21.075, -0.363, 0.770, -0.472, 8.362, 6.531, 11.108, 19.580, 25.470, 19.490
26200, 0.807, 0.171, 0.547, 0.793, -1.526, -0.488, 23.950, -0.546, -0.740, -0.091, -1.038, -1.465, -3.601, 21.051, -0.362, 0.773, -0.479, 1.770, 11.902, 15.747, 19.586, 25.690, 19.490
26233, 0.804, 0.186, 0.549, 1.709, -1.648, -3.418, 23.941, -0.545, -0.744, -0.102, -8.972, -3.967, -9.766, 21.042, -0.337, 0.781, -0.473, -2.258, 10.742, 15.320, 19.577, 25.690, 19.470
26266, 0.820, 0.207, 0.546, 2.869, -0.549, -5.493, 23.947, -0.558, -0.748, -0.094, -7.080, -5.432, -3.052, 21.063, -0.315, 0.799, -0.445, 1.038, 10.010, 12.512, 19.571, 25.690, 19.470
26301, 0.828, 0.248, 0.547, 1.648, 0.977, -6.836, 23.965, -0.584, -0.761, -0.107, -4.456, -2.686, 0.488, 21.069, -0.310, 0.820, -0.442, 2.991, 7.996, 11.963, 19.610, 25.850, 19.470
26334, 0.834, 0.258, 0.554, -1.099, 2.319, -5.371, 23.935, -0.622, -0.771, -0.078, -1.831, 0.916, 0.366, 21.060, -0.301, 0.828, -0.447, 3.540, 12.207, 16.541, 19.568, 25.850, 19.470
26367, 0.840, 0.273, 0.539, -2.991, 2.808, -3.967, 23.935, -0.607, -0.767, -0.084, -8.545, 3.845, -8.972, 21.051, -0.293, 0.844, -0.427, 4.150, 20.020, 24.536, 19.574, 25.850, 19.470
26402, 0.850, 0.259, 0.532, -5.371, 4.761, -3.174, 23.974, -0.608, -0.784, -0.056, -6.287, 4.211, -7.996, 21.063, -0.271, 0.844, -0.421, 10.315, 11.719, 17.273, 19.595, 25.970, 19.470
26435, 0.850, 0.249, 0.536, -5.188, 5.676, -0.244, 23.941, -0.580, -0.784, -0.074, -9.033, 1.587, -7.629, 21.060, -0.271, 0.858, -0.455, 14.221, 10.986, 9.888, 19.595, 25.970, 19.490
26468, 0.861, 0.228, 0.536, -3.540, 6.531, -0.122, 23.950, -0.583, -0.803, -0.068, -9.094, 2.258, -6.409, 21.057, -0.296, 0.859, -0.470, 11.719, 10.071, 6.104, 19.589, 25.970, 19.490
26503, 0.868, 0.232, 0.538, -1.465, 6.958, 1.526, 23.959, -0.571, -0.807, -0.080, -16.418, 2.014, -22.949, 21.075, -0.311, 0.863, -0.461, 2.319, 22.339, 17.212, 19.580, 26.110, 19.490
26536, 0.868, 0.223, 0.554, -0.549, 6.958, 1.465, 23.971, -0.532, -0.821, -0.108, -15.930, 0.122, -22.522, 21.078, -0.283, 0.869, -0.460, 1.160, 23.743, 21.790, 19.595, 26.110, 19.490
26571, 0.863, 0.208, 0.566, 0.244, 7.202, -0.488, 23.959, -0.529, -0.822, -0.110, -16.541, -2.380, -16.052, 21.045, -0.276, 0.881, -0.479, 7.507, 22.400, 19.531, 19.583, 26.110, 19.490
26604, 0.879, 0.213, 0.566, 1.953, 6.348, -1.648, 23.947, -0.546, -0.846, -0.107, -13.977, -8.362, -0.122, 21.081, -0.252, 0.893, -0.488, 9.460, 12.878, 13.184, 19.565, 26.150, 19.490
26637, 0.861, 0.237, 0.572, 1.343, 5.676, -1.038, 23.980, -0.545, -0.839, -0.157, -10.559, -3.479, -6.042, 21.072, -0.268, 0.883, -0.496, 2.869, 15.991, 13.123, 19.577, 26.150, 19.510
26672, 0.853, 0.219, 0.575, 0.977, 3.723, -1.892, 23.983, -0.543, -0.828, -0.119, -5.676, -3.662, -4.150, 21.096, -0.244, 0.884, -0.487, -6.836, 17.639, 20.569, 19.616, 26.150, 19.510
26705, 0.860, 0.240, 0.578, 1.587, 2.197, -2.319, 23.941, -0.581, -0.827, -0.107, -9.216, -5.981, -6.897, 21.060, -0.221, 0.882, -0.462, 0.427, 19.653, 18.921, 19.592, 26.270, 19.510
26738, 0.852, 0.242, 0.578, 0.549, 1.709, -2.136, 23.968, -0.534, -0.842, -0.182, -9.094, -3.357, -13.489, 21.075, -0.184, 0.897, -0.484, 1.343, 14.221, 14.648, 19.598, 26.270, 19.490
26773, 0.856, 0.239, 0.580, 1.099, 1.343, -2.686, 23.974, -0.529, -0.837, -0.148, -2.075, -2.930, -6.775, 21.081, -0.190, 0.917, -0.497, -0.732, 6.531, 15.564, 19.598, 26.270, 19.490
26806, 0.864, 0.256, 0.574, 1.160, 0.977, -0.854, 23.953, -0.549, -0.846, -0.137, -1.709, -6.287, 4.211, 21.069, -0.155, 0.920, -0.460, -5.188, 16.052, 10.742, 19.589, 26.270, 19.490
26839, 0.858, 0.268, 0.590, 0.122, 0.732, 0.854, 23.947, -0.554, -0.852, -0.178, -4.272, -13.489, 6.348, 21.087, -0.173, 0.917, -0.470, 4.700, 8.423, 5.554, 19.589, 26.270, 19.490
26874, 0.851, 0.259, 0.607, -0.793, 0.488, 1.709, 23.956, -0.577, -0.838, -0.173, -7.629, -11.841, 1.892, 21.087, -0.176, 0.907, -0.502, 2.502, 12.085, 13.794, 19.592, 26.270, 19.490
26907, 0.855, 0.253, 0.608, -1.221, -0.488, 1.831, 23.944, -0.528, -0.832, -0.213, -11.719, -17.639, 0.183, 21.078, -0.123, 0.908, -0.502, -1.648, 20.569, 20.508, 19.604, 26.270, 19.490
26943, 0.825, 0.220, 0.589, 0.549, -0.061, 1.770, 23.962, -0.532, -0.795, -0.211, -3.113, -10.925, 1.709, 21.072, -0.138, 0.896, -0.471, 2.808, 11.292, 4.211, 19.589, 26.270, 19.470
26976, 0.861, 0.203, 0.536, -1.587, 1.343, -0.916, 23.962, -0.475, -0.815, -0.146, 0.488, 1.648, -3.784, 21.102, -0.193, 0.868, -0.445, -0.549, 9.460, 3.723, 19.607, 26.310, 19.470
27009, 0.803, 0.188, 0.627, -3.235, 1.526, -2.319, 23.995, -0.516, -0.789, -0.255, -3.967, 0.854, 3.906, 21.078, -0.156, 0.836, -0.564, 10.620, 6.531, 11.169, 19.610, 26.310, 19.470
27044, 0.735, 0.169, 0.721, -3.418, -1.160, -5.371, 23.947, -0.544, -0.775, -0.352, -0.366, -6.165, 6.287, 21.108, -0.048, 0.887, -0.653, 3.235, 3.174, 19.531, 19.616, 26.310, 19.490
27077, 0.742, 0.246, 0.689, 1.160, -6.470, -10.559, 23.965, -0.611, -0.753, -0.262, 12.756, -4.333, 11.536, 21.084, 0.006, 0.908, -0.581, -13.245, 2.869, 16.113, 19.595, 26.370, 19.490
27110, 0.827, 0.333, 0.570, 0.244, -8.240, -9.888, 23.980, -0.648, -0.787, -0.099, 15.442, -5.859, 10.681, 21.081, -0.041, 0.923, -0.388, -25.513, 10.254, 10.803, 19.598, 26.370, 19.490
27145, 0.873, 0.386, 0.549, -4.517, -5.920, -2.869, 23.962, -0.663, -0.811, -0.090, 5.920, -9.277, 6.104, 21.087, -0.031, 0.942, -0.345, -0.732, 6.226, 10.254, 19.583, 26.370, 19.510
27178, 0.900, 0.334, 0.523, -10.559, -0.671, 3.052, 23.977, -0.625, -0.821, -0.052, 2.258, 0.671, -2.930, 21.099, -0.079, 0.975, -0.362, 8.484, 3.052, 2.686, 19.622, 26.350, 19.510
27211, 0.909, 0.280, 0.555, -17.456, 3.418, 5.920, 23.959, -0.578, -0.851, -0.132, -3.662, 9.583, -2.869, 21.093, -0.124, 0.940, -0.403, 14.954, -0.793, 1.038, 19.592, 26.350, 19.510
27246, 0.865, 0.187, 0.659, -17.761, 2.808, 4.822, 23.947, -0.578, -0.839, -0.244, -6.653, -2.930, 2.625, 21.096, -0.104, 0.942, -0.574, 31.311, -12.878, -5.310, 19.604, 26.350, 19.470
27279, 0.879, 0.180, 0.634, -12.268, 1.709, 0.793, 23.980, -0.566, -0.848, -0.193, 0.244, 5.493, -0.977, 21.099, -0.135, 0.974, -0.551, 15.259, -0.977, 1.404, 19.607, 26.310, 19.470
27312, 0.923, 0.217, 0.570, -7.507, 2.197, -2.075, 23.947, -0.560, -0.848, -0.104, 0.671, 5.981, -0.610, 21.078, -0.133, 0.992, -0.442, 3.296, 6.958, 6.348, 19.610, 26.310, 19.510
27347, 0.937, 0.299, 0.511, -4.272, 4.333, -5.859, 23.974, -0.606, -0.841, -0.041, -4.150, 3.174, 2.625, 21.087, -0.086, 0.988, -0.354, 6.226, 5.859, 7.202, 19.604, 26.310, 19.510
27380, 0.898, 0.332, 0.489, -7.324, 10.193, -2.441, 23.980, -0.608, -0.808, -0.034, -8.301, 10.498, -1.831, 21.108, -0.064, 0.926, -0.324, 7.751, 9.583, 7.080, 19.577, 26.350, 19.510
27415, 0.820, 0.250, 0.478, -11.841, 14.099, 3.357, 23.965, -0.526, -0.763, -0.081, -9.949, 15.930, -9.460, 21.090, -0.087, 0.863, -0.343, 15.503, 11.353, 5.005, 19.595, 26.350, 19.510
27448, 0.756, 0.177, 0.599, -11.902, 14.221, 5.493, 23.947, -0.504, -0.726, -0.220, -12.024, 12.329, -2.686, 21.075, -0.053, 0.838, -0.528, 27.344, -0.122, -1.038, 19.640, 26.350, 19.510
27481, 0.708, 0.131, 0.619, -8.606, 9.460, 2.563, 23.974, -0.499, -0.731, -0.285, -4.089, 10.986, -2.563, 21.111, -0.113, 0.828, -0.546, 10.925, 8.057, 3.418, 19.598, 26.370, 19.510
27516, 0.760, 0.101, 0.604, -5.859, 4.761, -4.150, 24.004, -0.449, -0.747, -0.247, 0.244, 10.986, -7.080, 21.108, -0.110, 0.834, -0.516, 4.272, 6.897, 11.780, 19.598, 26.370, 19.490
27549, 0.769, 0.125, 0.612, -2.075, 0.061, -6.958, 23.980, -0.488, -0.759, -0.257, 6.836, 1.587, 9.521, 21.105, -0.083, 0.874, -0.534, 4.578, -0.122, 7.324, 19.637, 26.370, 19.490
27582, 0.817, 0.179, 0.584, -0.122, -1.953, -11.230, 23.956, -0.512, -0.791, -0.187, 11.963, 1.343, 9.338, 21.093, -0.095, 0.898, -0.471, -3.662, -1.221, 5.188, 19.580, 26.350, 19.490
27617, 0.845, 0.235, 0.572, 1.343, -2.563, -11.169, 23.974, -0.558, -0.796, -0.154, 15.015, -1.709, 19.104, 21.099, -0.062, 0.928, -0.425, 1.648, -5.859, 1.648, 19.607, 26.350, 19.490
27649, 0.835, 0.280, 0.569, -0.061, -2.502, -11.658, 23.962, -0.614, -0.787, -0.147, 19.836, 1.892, 18.738, 21.126, -0.038, 0.936, -0.403, 3.967, -14.404, -8.545, 19.637, 26.350, 19.490
27681, 0.849, 0.298, 0.564, -3.601, -2.258, -9.399, 23.977, -0.624, -0.797, -0.119, 16.174, 10.864, 5.737, 21.114, -0.073, 0.928, -0.400, 4.639, -19.714, -17.151, 19.616, 26.370, 19.490
27715, 0.847, 0.284, 0.560, -6.836, -2.319, -5.737, 23.977, -0.596, -0.800, -0.150, 18.982, 10.071, 11.230, 21.102, -0.013, 0.950, -0.365, 22.095, -32.227, -37.170, 19.622, 26.370, 19.470
27747, 0.896, 0.261, 0.564, -7.507, -1.343, -4.822, 23.983, -0.623, -0.826, -0.083, 31.982, 24.109, 16.663, 21.114, 0.062, 0.947, -0.342, 66.833, -91.003, -144.836, 19.586, 26.370, 19.470
27781, 0.907, 0.284, 0.566, -8.240, 0.793, -5.127, 23.989, -0.646, -0.834, -0.057, 29.053, 30.029, 23.376, 21.141, -0.252, 0.923, -0.537, 93.018, -133.850, -198.792, 19.619, 26.370, 19.470
27813, 0.962, 0.266, 0.550, -10.681, 1.038, -1.160, 23.998, -0.621, -0.870, -0.101, 22.156, 17.578, 20.142, 21.099, -0.660, 0.879, -0.581, 17.822, -43.579, -115.784, 19.634, 26.370, 19.490
27845, 0.977, 0.224, 0.573, -8.606, 3.723, 1.038, 23.986, -0.636, -0.866, -0.055, 9.277, 13.428, 10.681, 21.129, -0.579, 0.828, -0.591, -17.212, 72.510, 5.127, 19.619, 26.370, 19.490
27879, 0.944, 0.238, 0.577, -2.380, 7.874, -4.333, 23.986, -0.626, -0.842, -0.097, 1.648, 11.780, 8.301, 21.111, -0.618, 0.930, -0.414, -33.936, 65.552, 31.555, 19.631, 25.430, 19.490
27911, 0.886, 0.261, 0.589, -3.357, 8.545, -5.066, 23.962, -0.661, -0.810, -0.130, 8.423, 19.592, 12.329, 21.123, -0.474, 0.815, -0.382, 0.183, 14.526, 6.958, 19.610, 25.430, 19.470
27943, 0.827, 0.222, 0.604, -6.836, 7.568, -2.686, 23.989, -0.625, -0.772, -0.154, 4.456, 17.090, -0.305, 21.108, -0.391, 0.835, -0.536, 26.184, 1.953, 11.414, 19.616, 25.430, 19.470
27977, 0.796, 0.205, 0.595, -4.333, 6.592, -6.042, 23.965, -0.616, -0.726, -0.108, 6.348, 15.198, 0.244, 21.114, -0.311, 0.866, -0.577, 2.625, 16.479, 40.710, 19.619, 24.890, 19.470
28009, 0.772, 0.194, 0.614, -2.136, 3.662, -6.287, 24.004, -0.583, -0.729, -0.184, 0.854, 7.202, 2.930, 21.126, -0.250, 0.828, -0.604, -6.775, 42.236, 80.017, 19.616, 24.890, 19.490
28041, 0.742, 0.226, 0.626, 2.075, -3.479, -6.592, 23.977, -0.621, -0.713, -0.207, 4.333, 4.272, 4.028, 21.102, -0.047, 0.844, -0.627, 22.461, 42.358, 87.158, 19.619, 24.890, 19.490
28075, 0.741, 0.254, 0.626, 7.812, -8.545, -5.615, 23.971, -0.639, -0.687, -0.188, 8.362, 1.526, 2.563, 21.117, -0.055, 0.691, -0.573, 4.150, 114.502, 0.061, 19.610, 25.110, 19.490
28107, 0.753, 0.309, 0.570, 11.780, -8.667, -5.615, 23.995, -0.620, -0.687, -0.254, 11.414, 0.549, 2.258, 21.102, 0.011, 0.811, -0.531, -34.424, 141.418, -53.528, 19.619, 25.110, 19.510
28139, 0.762, 0.319, 0.591, 6.104, -8.606, -0.977, 23.968, -0.697, -0.688, -0.137, 12.756, 1.282, 0.854, 21.126, -0.167, 0.786, -0.441, 16.418, 140.930, -46.814, 19.634, 25.110, 19.510
28173, 0.756, 0.329, 0.581, 1.648, -7.385, 4.333, 23.995, -0.674, -0.692, -0.141, 5.859, -1.587, -7.446, 21.117, -0.339, 0.955, -0.402, 17.761, 56.824, -39.795, 19.613, 25.490, 19.510
28205, 0.791, 0.292, 0.564, 1.160, -4.028, 5.127, 23.980, -0.651, -0.704, -0.114, 8.179, 1.099, -9.827, 21.114, -0.128, 0.814, -0.523, -45.227, 1.892, -38.147, 19.613, 25.490, 19.510
28239, 0.825, 0.298, 0.545, -2.686, -4.395, 6.897, 23.962, -0.633, -0.725, -0.104, 5.615, 2.686, -10.437, 21.129, -0.151, 0.797, -0.467, -46.143, 53.711, -80.750, 19.622, 25.490, 19.510
28271, 0.863, 0.312, 0.547, -4.700, -3.479, 3.784, 24.004, -0.646, -0.756, -0.108, 2.625, 4.944, -6.897, 21.144, -0.335, 0.834, -0.456, -12.512, 85.083, -70.557, 19.625, 25.630, 19.510
28303, 0.905, 0.303, 0.543, -6.775, 0.488, -1.770, 23.998, -0.663, -0.788, -0.074, 7.812, 10.376, -3.418, 21.108, -0.390, 0.943, -0.488, 37.354, 42.114, 13.184, 19.604, 25.630, 19.490
28337, 0.925, 0.296, 0.560, -5.798, 3.052, -1.953, 23.989, -0.669, -0.804, -0.058, 3.052, 9.094, -1.038, 21.108, -0.197, 0.958, -0.569, 1.099, -5.188, 0.732, 19.616, 25.630, 19.490
28369, 0.922, 0.305, 0.563, 0.366, 7.263, -1.953, 23.995, -0.676, -0.797, -0.058, 1.587, 5.310, 3.479, 21.156, -0.255, 0.945, -0.542, -23.437, 11.902, -28.076, 19.637, 25.730, 19.490
28401, 0.879, 0.325, 0.554, 4.517, 13.123, -0.549, 23.983, -0.697, -0.765, -0.050, -5.859, 4.639, -0.671, 21.138, -0.205, 0.913, -0.487, -18.616, 25.940, -10.071, 19.619, 25.730, 19.470
28435, 0.834, 0.334, 0.548, 5.798, 14.648, 3.845, 24.004, -0.685, -0.739, -0.076, -11.414, -1.648, 1.831, 21.147, -0.209, 0.852, -0.394, -15.503, 27.039, -21.179, 19.637, 25.730, 19.470
28468, 0.812, 0.341, 0.530, 5.798, 14.709, 6.897, 23.986, -0.677, -0.721, -0.074, -15.869, -1.526, -4.456, 21.141, -0.250, 0.869, -0.396, 3.296, 17.212, -13.733, 19.616, 25.630, 19.470
28500, 0.800, 0.330, 0.508, 5.005, 16.846, 9.277, 23.986, -0.638, -0.706, -0.085, -18.372, 2.808, -14.893, 21.135, -0.211, 0.836, -0.405, 2.441, 22.095, 1.282, 19.631, 25.630, 19.510
