millis,acc_x_c,acc_y_c,acc_z_c,gyro_x_c,gyro_y_c,gyro_z_c,imu_temp_c,acc_x_l,acc_y_l,acc_z_l,gyro_x_l,gyro_y_l,gyro_z_l,imu_temp_l,acc_x_r,acc_y_r,acc_z_r,gyro_x_r,gyro_y_r,gyro_z_r,imu_temp_r,obj_temp,amb_temp
7376, 0.961, -0.153, 0.333, 12.024, 2.869, 2.319, 26.137, -0.400, -0.527, 0.701, -8.484, 2.808, 9.338, 23.507, -0.612, 0.775, 0.002, -5.371, 13.245, 3.967, 22.054, 26.990, 20.590
7420, 0.981, -0.064, 0.324, 10.193, 3.662, 1.526, 26.134, -0.475, -0.552, 0.661, -10.986, -1.648, 7.629, 23.534, -0.574, 0.765, 0.094, -1.526, 9.888, 4.333, 22.060, 26.990, 20.590
7458, 0.957, -0.092, 0.332, 5.432, 6.409, 5.554, 26.131, -0.428, -0.540, 0.661, -3.906, -0.366, 2.319, 23.519, -0.576, 0.788, 0.022, 10.986, 15.503, 5.371, 22.030, 26.990, 20.590
7496, 0.920, -0.148, 0.347, 10.986, 6.165, 6.470, 26.155, -0.409, -0.501, 0.674, -4.700, -5.676, 7.202, 23.522, -0.539, 0.793, -0.036, -1.953, 16.785, 4.761, 22.054, 26.990, 20.590
7540, 0.890, -0.125, 0.369, 20.691, 3.540, 8.484, 26.143, -0.396, -0.546, 0.625, -16.174, -10.559, 18.066, 23.507, -0.512, 0.770, -0.020, -7.568, 25.208, 5.493, 22.075, 26.990, 20.590
7579, 0.888, -0.062, 0.387, 18.982, 0.977, 8.179, 26.134, -0.431, -0.589, 0.575, -12.024, -11.475, 15.503, 23.522, -0.493, 0.767, 0.028, -7.996, 18.799, 3.479, 22.051, 26.990, 20.610
7618, 0.875, -0.033, 0.391, 12.939, 1.282, 10.559, 26.137, -0.441, -0.583, 0.555, -3.357, -11.292, 6.714, 23.489, -0.466, 0.748, 0.043, -4.333, 17.578, -3.357, 22.069, 27.030, 20.610
7662, 0.851, -0.095, 0.389, 5.920, 1.282, 13.245, 26.152, -0.365, -0.552, 0.578, -0.854, -14.343, 1.831, 23.513, -0.494, 0.732, -0.034, 9.155, 20.020, -4.822, 22.048, 27.030, 20.570
7700, 0.903, -0.199, 0.384, 6.714, -2.808, 11.841, 26.137, -0.318, -0.561, 0.647, 1.160, -11.292, 5.493, 23.537, -0.592, 0.787, -0.100, 5.737, 18.982, -6.042, 22.054, 27.030, 20.570
7739, 0.911, -0.168, 0.353, 10.193, -3.113, 6.287, 26.137, -0.386, -0.569, 0.686, -1.648, -5.920, 14.771, 23.531, -0.612, 0.789, -0.026, -4.578, 13.489, -6.042, 22.039, 26.990, 20.570
7783, 1.119, -0.069, 0.341, -0.427, -5.615, 4.822, 26.152, -0.508, -0.598, 0.732, 2.686, -7.324, 2.625, 23.516, -0.714, 0.777, 0.138, 12.573, 7.263, -9.094, 22.057, 26.990, 20.570
7822, 1.016, -0.163, 0.336, -11.475, 3.540, 4.395, 26.140, -0.422, -0.551, 0.750, 5.676, 0.488, -9.766, 23.498, -0.696, 0.825, -0.019, 25.818, 4.333, -5.249, 22.051, 26.990, 20.570
7860, 0.993, -0.210, 0.365, -6.958, 0.244, -0.977, 26.155, -0.387, -0.561, 0.717, 0.793, 4.517, -1.221, 23.534, -0.649, 0.834, -0.075, 7.996, -1.953, -2.502, 22.054, 26.990, 20.590
7904, 0.933, -0.149, 0.379, -1.038, -2.563, -5.554, 26.152, -0.393, -0.564, 0.654, 2.136, 7.629, 5.066, 23.549, -0.574, 0.798, -0.039, 2.563, -1.465, 1.221, 22.060, 26.990, 20.590
7943, 0.888, -0.100, 0.371, -0.244, -3.174, -6.165, 26.122, -0.409, -0.571, 0.607, 2.258, 6.409, 6.104, 23.537, -0.521, 0.764, 0.006, -1.099, -2.258, -0.916, 22.057, 26.990, 20.590
7980, 0.893, -0.070, 0.354, -3.906, -4.028, -5.920, 26.128, -0.434, -0.548, 0.594, 8.301, 7.385, 4.639, 23.543, -0.519, 0.741, 0.024, 3.662, -4.395, -4.395, 22.075, 26.990, 20.570
8015, 0.905, -0.118, 0.348, -5.371, -4.333, -4.028, 26.152, -0.398, -0.521, 0.631, 9.338, 6.592, 1.892, 23.546, -0.546, 0.745, -0.021, 9.338, -2.197, -4.028, 22.057, 26.930, 20.570
8048, 0.874, -0.177, 0.364, -3.296, -7.202, -3.662, 26.158, -0.345, -0.530, 0.635, 7.263, 1.160, 5.127, 23.543, -0.547, 0.764, -0.098, 7.507, -0.366, -2.808, 22.054, 26.930, 20.590
8083, 0.837, -0.197, 0.372, 2.869, -13.000, -4.700, 26.161, -0.316, -0.544, 0.636, 9.583, 2.991, 18.799, 23.558, -0.532, 0.782, -0.124, -5.066, -1.465, -5.310, 22.069, 26.930, 20.590
8117, 0.904, -0.098, 0.327, 8.301, -25.024, -6.348, 26.143, -0.488, -0.549, 0.648, 13.916, 4.333, 31.067, 23.543, -0.537, 0.754, 0.053, -32.043, -11.902, -15.564, 22.081, 26.990, 20.590
8150, 1.020, -0.027, 0.306, 1.221, -25.269, -0.061, 26.140, -0.521, -0.535, 0.681, 21.423, -6.714, 18.311, 23.534, -0.609, 0.724, 0.158, -9.216, -2.014, -20.508, 22.033, 26.990, 20.590
8185, 0.995, -0.132, 0.272, -5.859, -22.278, 2.808, 26.134, -0.451, -0.500, 0.732, 26.489, -2.808, 8.667, 23.534, -0.656, 0.759, 0.043, 0.244, -4.578, -19.287, 22.066, 26.990, 20.590
8218, 0.995, -0.172, 0.273, -4.028, -22.156, 1.465, 26.134, -0.433, -0.476, 0.747, 21.240, -3.662, 9.888, 23.543, -0.651, 0.749, 0.025, -3.479, -4.700, -18.494, 22.060, 26.930, 20.590
8251, 0.983, -0.174, 0.270, -1.404, -20.020, 1.282, 26.158, -0.417, -0.471, 0.731, 18.494, -4.028, 10.803, 23.564, -0.657, 0.738, 0.020, -3.845, -2.747, -16.479, 22.078, 26.930, 20.590
8287, 0.980, -0.125, 0.258, 1.038, -20.142, 1.221, 26.152, -0.474, -0.466, 0.727, 14.282, -2.197, 14.221, 23.552, -0.619, 0.744, 0.087, -9.338, -6.165, -13.916, 22.060, 26.930, 20.590
8320, 1.013, -0.061, 0.236, 0.916, -17.883, 3.296, 26.146, -0.534, -0.469, 0.718, 14.221, -6.897, 14.099, 23.561, -0.621, 0.721, 0.160, -7.507, -4.395, -20.020, 22.072, 26.930, 20.590
8353, 1.061, -0.087, 0.195, -3.052, -15.808, 8.789, 26.131, -0.533, -0.431, 0.776, 16.724, -10.437, 7.629, 23.561, -0.701, 0.713, 0.151, 7.874, 9.094, -16.968, 22.060, 26.930, 20.590
8388, 1.106, -0.141, 0.166, -4.822, -10.071, 10.864, 26.155, -0.510, -0.398, 0.846, 15.747, -12.390, 1.038, 23.558, -0.783, 0.704, 0.155, 11.597, 10.071, -16.357, 22.066, 26.930, 20.590
8421, 1.108, -0.193, 0.162, -5.615, -2.258, 12.146, 26.143, -0.460, -0.389, 0.883, 5.493, -17.273, -2.686, 23.582, -0.806, 0.709, 0.109, 24.048, 17.212, -10.925, 22.069, 26.870, 20.590
8457, 1.085, -0.231, 0.179, -2.747, 3.235, 9.277, 26.164, -0.399, -0.423, 0.862, -5.798, -16.113, 4.272, 23.540, -0.823, 0.711, 0.044, 33.081, 14.343, -4.395, 22.042, 26.870, 20.610
8490, 1.053, -0.238, 0.168, -1.221, 8.667, 4.456, 26.146, -0.393, -0.402, 0.843, -4.822, -8.545, 3.540, 23.582, -0.818, 0.667, 0.066, 32.471, 8.423, -1.160, 22.057, 26.870, 20.610
8523, 1.046, -0.214, 0.143, 0.122, 13.733, 3.113, 26.161, -0.392, -0.393, 0.869, -15.564, -4.272, 9.583, 23.555, -0.748, 0.620, 0.155, 45.044, -12.329, -2.441, 22.063, 26.930, 20.610
8558, 1.052, -0.201, 0.169, -0.977, 17.883, 2.441, 26.143, -0.448, -0.405, 0.801, -17.212, -7.996, 8.118, 23.585, -0.725, 0.646, 0.091, 116.333, -22.461, 10.742, 22.072, 26.930, 20.590
8591, 0.983, -0.207, 0.139, -0.122, 30.579, 1.587, 26.164, -0.387, -0.358, 0.801, -12.024, 0.854, -6.470, 23.561, -0.757, 0.583, 0.008, 125.610, -30.884, 14.282, 22.060, 26.930, 20.590
8624, 1.016, -0.234, 0.218, 3.967, 24.780, 4.395, 26.176, -0.370, -0.394, 0.762, -23.987, 11.047, 8.606, 23.582, -0.741, 0.641, 0.108, 112.854, -83.862, 9.644, 22.051, 27.350, 20.590
8659, 0.963, -0.102, 0.345, 15.198, 12.817, -3.662, 26.173, -0.542, -0.473, 0.645, -55.237, 8.667, 34.851, 23.582, -0.750, 0.676, 0.029, 137.024, -112.183, -3.113, 22.066, 27.350, 20.590
8690, 0.898, 0.074, 0.380, 17.456, 11.841, -10.986, 26.170, -0.668, -0.584, 0.554, -56.946, -5.127, 34.363, 23.552, -0.604, 0.744, -0.100, 246.216, -161.987, 62.866, 22.093, 27.350, 20.590
8722, 0.942, 0.142, 0.441, 6.958, 6.714, 0.366, 26.179, -0.670, -0.683, 0.541, -38.269, -30.334, 36.072, 23.564, -0.468, 0.764, -0.311, 265.442, -114.197, 118.042, 22.054, 26.670, 20.590
8756, 0.959, 0.079, 0.401, -14.526, 6.958, 28.931, 26.143, -0.596, -0.675, 0.575, -9.338, -45.044, 15.381, 23.573, -0.237, 0.939, -0.488, 131.287, 0.854, -16.968, 22.054, 26.670, 20.590
8788, 0.939, -0.187, 0.286, -36.438, 11.108, 40.283, 26.143, -0.409, -0.565, 0.694, 26.001, -45.776, -23.132, 23.564, -0.689, 0.730, -0.236, -80.444, -115.784, -111.755, 22.081, 26.670, 20.590
8823, 0.976, -0.458, 0.255, -28.381, 7.568, 39.795, 26.137, -0.192, -0.462, 0.866, 42.114, -26.428, -32.837, 23.579, -0.927, 0.639, -0.215, 37.720, 7.141, -57.373, 22.063, 25.850, 20.590
8855, 1.000, -0.542, 0.206, -9.033, 8.484, 30.151, 26.167, -0.190, -0.347, 0.947, 23.743, -21.667, 0.427, 23.564, -1.000, 0.708, -0.290, 48.340, 32.104, -11.902, 22.075, 25.850, 20.590
8887, 1.054, -0.450, 0.207, 15.137, 1.160, 0.671, 26.167, -0.268, -0.361, 0.859, -10.376, -1.892, 9.827, 23.591, -0.943, 0.619, -0.145, -35.828, 7.568, 8.179, 22.069, 25.850, 20.590
8921, 0.956, -0.255, 0.277, 19.470, 2.869, -15.320, 26.152, -0.375, -0.458, 0.743, -31.006, 8.362, 21.423, 23.573, -0.637, 0.681, -0.162, -1.587, 33.081, 50.415, 22.063, 25.850, 20.590
8953, 0.890, -0.141, 0.266, 20.081, 2.258, -9.766, 26.176, -0.447, -0.496, 0.701, -19.043, 3.296, 18.738, 23.594, -0.507, 0.709, -0.131, -30.273, 28.015, 27.283, 22.063, 25.850, 20.590
8985, 0.968, -0.116, 0.359, 14.832, -1.587, 3.784, 26.179, -0.491, -0.550, 0.656, -6.470, -0.305, 9.033, 23.597, -0.539, 0.763, -0.190, -1.221, 45.837, 9.277, 22.054, 25.850, 20.590
9019, 0.896, -0.138, 0.342, 13.245, 0.183, 4.700, 26.161, -0.474, -0.516, 0.675, -0.366, -2.991, 4.578, 23.591, -0.556, 0.756, -0.281, -5.310, 46.997, -3.723, 22.069, 26.090, 20.590
9051, 0.948, -0.132, 0.316, 11.963, -3.845, 8.728, 26.161, -0.462, -0.507, 0.720, 0.671, -13.977, 5.554, 23.597, -0.575, 0.720, -0.172, -52.979, 46.753, -4.456, 22.063, 26.090, 20.590
9083, 0.958, -0.202, 0.327, 7.141, -2.197, 15.442, 26.137, -0.389, -0.542, 0.697, -5.676, -17.395, -0.671, 23.612, -0.740, 0.722, -0.169, -46.082, 48.828, -22.034, 22.072, 26.090, 20.590
9117, 0.929, -0.285, 0.337, 7.385, -3.052, 11.963, 26.188, -0.306, -0.545, 0.741, 5.920, -10.437, 0.366, 23.594, -0.752, 0.588, 0.108, -3.845, 3.357, -25.208, 22.054, 26.910, 20.590
9149, 0.949, -0.301, 0.298, 4.944, -9.644, 2.808, 26.179, -0.257, -0.505, 0.746, 2.991, -9.521, 14.038, 23.588, -0.815, 0.589, -0.128, 45.654, -35.950, -11.597, 22.042, 26.910, 20.590
9183, 0.908, -0.330, 0.252, 5.981, -4.089, -6.531, 26.173, -0.288, -0.471, 0.734, -1.648, 2.930, 22.278, 23.597, -0.751, 0.651, -0.284, 77.393, -43.884, 33.142, 22.069, 26.310, 20.590
9215, 0.978, -0.217, 0.252, 9.949, -6.348, -12.207, 26.152, -0.336, -0.415, 0.732, -6.409, 11.475, 44.373, 23.609, -0.578, 0.754, -0.279, 7.629, -8.789, 9.888, 22.051, 26.310, 20.590
9247, 0.969, -0.213, 0.214, 6.409, -2.625, -8.667, 26.185, -0.390, -0.402, 0.812, -30.334, -0.854, 67.017, 23.600, -0.639, 0.668, -0.037, -30.762, -8.179, 3.662, 22.066, 26.310, 20.590
9281, 0.947, -0.233, 0.287, 7.019, -2.075, -3.967, 26.176, -0.438, -0.431, 0.781, -41.138, -9.094, 80.872, 23.591, -0.641, 0.727, -0.221, 25.269, 25.940, 6.897, 22.063, 25.910, 20.590
9313, 0.964, -0.273, 0.267, 10.315, -5.737, -7.996, 26.164, -0.462, -0.478, 0.745, -49.072, -21.118, 75.989, 23.594, -0.807, 0.677, -0.019, -10.925, -16.968, -9.094, 22.072, 25.910, 20.590
9345, 1.021, -0.219, 0.289, 13.794, -9.521, -7.935, 26.167, -0.461, -0.494, 0.771, -30.212, -16.235, 51.331, 23.600, -0.679, 0.712, -0.108, 12.634, -12.146, -11.108, 22.060, 25.910, 20.570
9379, 1.028, -0.250, 0.243, 14.404, -7.629, -9.583, 26.149, -0.452, -0.414, 0.809, -59.570, -33.813, 94.788, 23.594, -0.667, 0.791, -0.221, 19.592, -1.770, 2.747, 22.060, 25.670, 20.570
9411, 1.060, -0.235, 0.249, 20.935, -3.052, -7.568, 26.170, -0.561, -0.538, 0.801, -77.271, -30.334, 81.726, 23.606, -0.651, 0.788, -0.231, 2.563, 18.677, 11.169, 22.060, 25.670, 20.570
9443, 1.000, -0.192, 0.243, 22.705, 4.395, -1.587, 26.170, -0.543, -0.530, 0.637, -24.475, -11.780, 20.874, 23.606, -0.634, 0.707, -0.150, -16.846, 24.109, 17.029, 22.057, 25.670, 20.590
9478, 0.980, -0.184, 0.274, 18.311, 10.071, 1.709, 26.179, -0.446, -0.500, 0.657, 3.540, 5.554, -8.484, 23.615, -0.623, 0.709, -0.156, -8.789, 36.621, 21.484, 22.081, 25.690, 20.590
9510, 0.965, -0.172, 0.291, 19.226, 9.460, 1.953, 26.203, -0.477, -0.498, 0.682, -2.136, 10.193, 0.244, 23.603, -0.605, 0.749, -0.149, -8.911, 56.763, 11.292, 22.045, 25.690, 20.590
9544, 0.952, -0.139, 0.286, 20.203, 7.568, 3.357, 26.179, -0.531, -0.447, 0.700, -5.859, -0.854, 7.874, 23.615, -0.663, 0.753, -0.205, -40.222, 59.937, 9.583, 22.057, 25.690, 20.590
9576, 0.959, -0.142, 0.284, 20.935, 4.211, 7.690, 26.170, -0.533, -0.468, 0.697, -27.466, -9.155, 7.751, 23.645, -0.673, 0.711, -0.062, -48.157, 71.350, 15.198, 22.060, 26.150, 20.590
9608, 0.988, -0.168, 0.271, 18.799, 3.845, 11.536, 26.176, -0.486, -0.490, 0.692, -22.400, -13.794, 9.338, 23.606, -0.612, 0.734, -0.019, -14.343, 52.673, 22.461, 22.075, 26.150, 20.590
9643, 1.014, -0.164, 0.294, 15.808, 4.211, 7.263, 26.155, -0.485, -0.549, 0.671, -32.043, -13.000, 9.216, 23.621, -0.621, 0.765, -0.119, 1.099, 31.372, -1.831, 22.051, 26.150, 20.570
9675, 0.992, -0.185, 0.291, 11.047, 11.047, 7.812, 26.188, -0.480, -0.548, 0.671, -18.250, -3.906, 3.540, 23.621, -0.634, 0.767, -0.134, 8.179, 29.358, 0.671, 22.054, 26.470, 20.570
9707, 0.984, -0.179, 0.306, 9.277, 10.193, 7.385, 26.158, -0.513, -0.556, 0.661, -13.794, -5.615, -0.977, 23.615, -0.636, 0.779, -0.183, 1.526, 30.396, 1.465, 22.072, 26.470, 20.570
9741, 0.979, -0.191, 0.313, 7.446, 9.033, 8.667, 26.152, -0.484, -0.542, 0.680, -3.418, -3.174, -13.123, 23.639, -0.640, 0.769, -0.171, -7.568, 32.776, 4.395, 22.075, 26.470, 20.570
9773, 0.958, -0.226, 0.323, 8.606, 7.751, 8.362, 26.170, -0.439, -0.549, 0.654, -1.770, -5.432, -6.714, 23.645, -0.601, 0.755, -0.177, 0.610, 29.236, 2.319, 22.057, 26.830, 20.570
9806, 0.948, -0.211, 0.321, 9.094, 4.028, 5.981, 26.158, -0.442, -0.579, 0.658, -12.451, -5.066, 4.272, 23.624, -0.600, 0.754, -0.175, 6.714, 8.362, -1.526, 22.060, 26.830, 20.570
9840, 0.957, -0.192, 0.328, 8.057, 2.319, 6.042, 26.191, -0.480, -0.544, 0.647, -10.132, -5.432, 5.981, 23.645, -0.597, 0.791, -0.230, 11.536, 10.742, 0.793, 22.066, 26.830, 20.610
9872, 0.963, -0.164, 0.331, 6.531, 1.770, 7.446, 26.176, -0.505, -0.553, 0.648, -11.230, -3.723, 2.441, 23.624, -0.527, 0.779, -0.263, 7.141, 23.010, -1.831, 22.078, 26.770, 20.610
9904, 0.960, -0.152, 0.325, 3.723, 6.042, 8.545, 26.149, -0.492, -0.583, 0.620, -8.057, -4.639, -6.104, 23.621, -0.537, 0.764, -0.207, 0.854, 25.208, -5.981, 22.048, 26.770, 20.610
9938, 0.972, -0.157, 0.326, -2.930, 10.559, 7.202, 26.176, -0.474, -0.599, 0.635, -1.770, -2.991, -17.822, 23.624, -0.595, 0.763, -0.204, 5.249, 33.752, -5.920, 22.066, 26.770, 20.610
9971, 0.961, -0.233, 0.324, -9.399, 18.127, 7.812, 26.179, -0.442, -0.624, 0.597, 2.808, -0.854, -47.241, 23.636, -0.627, 0.736, -0.212, 5.615, 37.659, -4.883, 22.084, 26.990, 20.610
10005, 0.957, -0.229, 0.384, -14.282, 21.790, 2.747, 26.167, -0.380, -0.621, 0.565, 33.020, 20.020, -78.186, 23.627, -0.635, 0.749, -0.276, 14.587, 32.349, 0.244, 22.072, 26.990, 20.610
10037, 0.900, -0.284, 0.330, -15.869, 26.550, -1.404, 26.161, -0.336, -0.592, 0.710, 46.570, 33.386, -75.134, 23.630, -0.672, 0.763, -0.318, 6.836, 30.457, -1.221, 22.060, 26.990, 20.610
10069, 0.939, -0.341, 0.260, -11.353, 29.358, -5.188, 26.191, -0.297, -0.520, 0.737, 44.739, 29.724, -71.289, 23.636, -0.663, 0.709, -0.258, -16.052, 36.255, 13.489, 22.069, 27.670, 20.610
10103, 0.978, -0.329, 0.356, -5.798, 21.973, -5.554, 26.182, -0.299, -0.541, 0.729, 22.705, 46.570, -78.491, 23.633, -0.656, 0.686, -0.302, -12.695, 44.312, 27.466, 22.042, 27.670, 20.610
10136, 0.822, -0.296, 0.456, -3.235, 26.733, -7.019, 26.161, -0.305, -0.671, 0.633, -0.732, 38.452, -64.087, 23.636, -0.562, 0.751, -0.397, 12.207, 33.875, 40.527, 22.060, 27.670, 20.610
10169, 0.778, -0.287, 0.567, -4.272, 18.127, -10.376, 26.173, -0.227, -0.755, 0.448, 0.061, 41.077, -58.472, 23.642, -0.454, 0.722, -0.488, -18.311, 26.367, 35.156, 22.075, 28.070, 20.610
10204, 0.748, -0.297, 0.673, -6.287, 7.324, -15.686, 26.167, -0.210, -0.875, 0.498, 2.686, 47.913, -24.353, 23.651, -0.454, 0.819, -0.564, -20.020, 3.906, 31.982, 22.060, 28.070, 20.590
10237, 0.743, -0.249, 0.639, -2.808, -6.531, -25.024, 26.167, -0.292, -0.836, 0.536, 6.409, 32.410, 5.188, 23.627, -0.392, 0.855, -0.502, -18.860, -16.968, 17.639, 22.078, 28.070, 20.590
10270, 0.917, -0.232, 0.523, -2.869, -18.188, -24.536, 26.188, -0.381, -0.734, 0.645, 27.649, 16.113, 19.836, 23.648, -0.444, 0.862, -0.326, -18.921, -18.494, -5.310, 22.072, 28.590, 20.590
10305, 1.031, -0.199, 0.375, -0.732, -16.541, -20.508, 26.197, -0.488, -0.617, 0.779, 26.123, 7.202, 17.151, 23.642, -0.571, 0.891, -0.144, -15.625, -20.081, -15.686, 22.084, 28.590, 20.590
10338, 1.114, -0.168, 0.274, 0.671, -10.498, -14.465, 26.182, -0.527, -0.505, 0.834, 21.729, 0.427, 15.381, 23.630, -0.646, 0.839, -0.040, -22.400, -19.165, -20.142, 22.090, 28.590, 20.590
10373, 1.148, -0.205, 0.285, 0.549, 1.343, -2.808, 26.191, -0.445, -0.501, 0.805, 11.047, -4.639, -3.296, 23.639, -0.608, 0.808, -0.082, 6.653, 5.493, -1.892, 22.099, 28.050, 20.590
10406, 0.988, -0.277, 0.404, 3.601, 8.972, 5.005, 26.176, -0.365, -0.606, 0.744, -19.775, 3.479, -6.348, 23.654, -0.610, 0.854, -0.350, 29.541, 24.170, 4.517, 22.102, 28.050, 20.610
10439, 0.910, -0.285, 0.343, 15.442, 1.587, -4.517, 26.185, -0.369, -0.558, 0.770, 5.249, -4.883, 12.512, 23.642, -0.563, 0.897, -0.344, -15.198, 10.254, -1.282, 22.087, 28.050, 20.610
10474, 1.109, -0.188, 0.407, 26.917, -5.859, 0.671, 26.149, -0.519, -0.606, 0.789, -16.541, -2.563, 30.762, 23.639, -0.552, 0.977, -0.252, -55.725, 31.982, -6.409, 22.081, 28.170, 20.610
10507, 1.101, -0.124, 0.255, 31.921, -5.188, 2.991, 26.176, -0.619, -0.562, 0.868, -5.005, -13.977, 32.104, 23.660, -0.643, 0.945, 0.036, -88.135, 39.490, -29.602, 22.084, 28.170, 20.630
10540, 1.313, -0.072, 0.288, 25.208, -22.095, 10.437, 26.203, -0.671, -0.612, 0.894, 1.404, -11.536, 13.367, 23.654, -0.768, 0.937, 0.118, -73.425, 46.570, -29.053, 22.087, 28.170, 20.630
10575, 1.233, -0.166, 0.283, 7.935, 3.113, 18.066, 26.155, -0.469, -0.554, 0.854, 4.822, -7.935, -9.033, 23.648, -0.802, 0.849, 0.111, -36.682, 48.340, -1.099, 22.078, 27.670, 20.630
10608, 1.004, -0.302, 0.288, 8.362, 11.414, 12.756, 26.188, -0.305, -0.490, 0.796, 0.000, -0.427, -9.888, 23.648, -0.714, 0.832, -0.121, 1.404, 51.331, 15.198, 22.099, 27.670, 20.610
10641, 0.964, -0.295, 0.488, 14.893, -4.639, 1.465, 26.194, -0.306, -0.635, 0.629, -28.198, 14.038, 9.155, 23.660, -0.572, 0.843, -0.361, -28.748, 25.024, 29.480, 22.090, 27.670, 20.610
10676, 0.796, -0.174, 0.312, 23.621, 3.784, -11.780, 26.188, -0.408, -0.589, 0.595, -0.610, 10.742, 28.687, 23.672, -0.443, 0.824, -0.083, -49.866, 21.545, 13.977, 22.090, 27.730, 20.610
10709, 0.930, -0.024, 0.379, 24.170, -11.047, -11.230, 26.182, -0.515, -0.532, 0.569, 7.141, 17.273, 28.931, 23.648, -0.366, 0.723, 0.019, -52.429, 10.742, 3.967, 22.105, 27.730, 20.590
10744, 0.908, -0.049, 0.277, 11.841, -0.366, 5.066, 26.194, -0.443, -0.466, 0.601, 3.418, 0.732, 6.409, 23.669, -0.454, 0.735, 0.080, -16.663, 30.029, -7.874, 22.084, 27.730, 20.590
10776, 0.865, -0.155, 0.343, 11.536, 4.089, 5.920, 26.167, -0.384, -0.479, 0.587, -11.597, -2.930, 10.254, 23.633, -0.434, 0.746, -0.059, -0.977, 10.925, 9.216, 22.075, 27.730, 20.590
10809, 0.797, -0.124, 0.375, 19.897, 5.371, 3.906, 26.185, -0.414, -0.523, 0.520, -20.203, 0.793, 11.047, 23.678, -0.386, 0.791, -0.133, -11.108, 21.729, 9.705, 22.090, 27.730, 20.590
10844, 0.815, -0.065, 0.408, 20.630, 6.104, 3.479, 26.206, -0.440, -0.559, 0.479, -15.991, 0.854, 12.512, 23.678, -0.338, 0.776, -0.053, -12.512, 22.278, 7.996, 22.087, 27.730, 20.590
10877, 0.789, -0.057, 0.439, 19.409, 4.211, 5.615, 26.197, -0.413, -0.568, 0.444, -21.057, -4.456, 19.043, 23.690, -0.315, 0.788, -0.091, -0.793, 23.132, 4.517, 22.111, 27.790, 20.590
10910, 0.768, -0.090, 0.431, 17.212, 0.854, 6.714, 26.161, -0.392, -0.562, 0.434, -16.785, -3.235, 22.644, 23.657, -0.355, 0.786, -0.126, -6.348, 20.447, 1.953, 22.087, 27.790, 20.610
10945, 0.813, -0.098, 0.440, 18.372, -4.211, 5.066, 26.212, -0.425, -0.575, 0.502, -21.362, -3.479, 34.729, 23.687, -0.360, 0.809, -0.102, -3.296, 17.883, 0.977, 22.084, 27.790, 20.610
10978, 0.831, -0.101, 0.447, 18.494, -7.385, 6.836, 26.191, -0.441, -0.605, 0.516, -25.635, -10.864, 39.429, 23.675, -0.408, 0.833, -0.128, 2.808, 17.029, -2.686, 22.105, 27.790, 20.610
11011, 0.834, -0.160, 0.409, 18.005, -9.949, 4.700, 26.206, -0.466, -0.597, 0.541, -9.399, -18.799, 30.273, 23.690, -0.447, 0.833, -0.160, -7.080, 13.672, -4.150, 22.102, 27.790, 20.570
11046, 0.878, -0.186, 0.381, 22.461, -16.052, 2.258, 26.194, -0.426, -0.546, 0.585, 5.249, -10.193, 27.527, 23.669, -0.492, 0.844, -0.075, -16.846, 12.695, -5.310, 22.090, 27.730, 20.570
11079, 0.962, -0.034, 0.334, 27.100, -24.109, -2.197, 26.203, -0.620, -0.572, 0.613, -6.470, -10.864, 46.265, 23.663, -0.468, 0.859, 0.045, -33.569, 0.549, -11.108, 22.090, 27.730, 20.570
11114, 1.058, 0.006, 0.333, 15.625, -24.109, 4.272, 26.161, -0.680, -0.550, 0.616, 7.690, -15.381, 20.325, 23.678, -0.507, 0.841, 0.164, -24.109, 4.150, -17.151, 22.093, 27.730, 20.610
11147, 1.020, -0.023, 0.297, 2.075, -15.503, 9.583, 26.191, -0.623, -0.516, 0.624, 18.127, -15.991, 2.991, 23.696, -0.510, 0.859, 0.098, -2.686, 5.554, -13.672, 22.087, 27.530, 20.610
11180, 0.998, -0.089, 0.328, -1.648, -15.015, 11.536, 26.194, -0.556, -0.541, 0.646, 13.855, -13.245, 0.000, 23.675, -0.511, 0.862, 0.021, 1.770, 7.568, -16.907, 22.084, 27.530, 20.610
11215, 0.979, -0.105, 0.314, -3.418, -18.311, 10.803, 26.179, -0.538, -0.535, 0.624, 19.836, -13.489, 0.977, 23.678, -0.547, 0.855, 0.026, -3.113, 2.258, -20.203, 22.084, 27.530, 20.610
11248, 0.989, -0.136, 0.280, -4.272, -18.982, 7.019, 26.197, -0.498, -0.481, 0.666, 28.687, -6.836, -4.456, 23.669, -0.556, 0.817, 0.042, -2.258, -0.427, -18.005, 22.081, 27.590, 20.610
11281, 0.988, -0.122, 0.248, -2.258, -16.357, 6.165, 26.206, -0.526, -0.439, 0.688, 21.362, -2.380, 2.808, 23.693, -0.534, 0.812, 0.091, 2.563, 0.244, -13.306, 22.084, 27.590, 20.630
11316, 0.981, -0.070, 0.260, -0.916, -17.517, 7.507, 26.185, -0.557, -0.451, 0.642, 10.376, -10.864, 5.859, 23.654, -0.485, 0.798, 0.090, 11.780, -0.732, -16.052, 22.084, 27.590, 20.630
11349, 0.925, -0.066, 0.285, -2.930, -9.583, 10.498, 26.200, -0.515, -0.484, 0.574, 5.310, -12.451, -4.517, 23.687, -0.452, 0.797, 0.013, 18.066, 6.287, -11.841, 22.090, 27.550, 20.630
11382, 0.859, -0.084, 0.326, -1.709, -7.812, 7.935, 26.176, -0.458, -0.496, 0.531, 10.620, -7.935, 0.854, 23.666, -0.403, 0.779, -0.073, 9.949, 3.418, -11.719, 22.078, 27.550, 20.630
11417, 0.839, -0.102, 0.310, -2.808, -9.766, 10.620, 26.185, -0.465, -0.489, 0.561, 9.705, -13.611, 5.127, 23.693, -0.442, 0.758, -0.034, 1.526, 4.944, -16.113, 22.075, 27.550, 20.630
11450, 0.848, -0.137, 0.308, -1.465, -13.794, 10.803, 26.182, -0.414, -0.478, 0.572, 12.817, -13.916, 4.211, 23.666, -0.489, 0.729, -0.041, 12.451, 7.019, -22.278, 22.072, 27.690, 20.630
11485, 0.895, -0.183, 0.281, -2.686, -17.700, 9.033, 26.200, -0.413, -0.507, 0.631, 12.085, -15.137, 7.812, 23.699, -0.570, 0.761, -0.028, 18.677, -2.441, -16.418, 22.084, 27.690, 20.610
11518, 0.930, -0.195, 0.266, -4.639, -22.278, 6.042, 26.182, -0.426, -0.503, 0.675, 19.348, -12.573, 9.277, 23.693, -0.595, 0.776, -0.046, -1.221, -5.859, -22.583, 22.087, 27.690, 20.610
11551, 0.976, -0.187, 0.231, -7.141, -24.780, 2.136, 26.209, -0.441, -0.479, 0.708, 26.550, -7.080, 8.667, 23.681, -0.625, 0.766, 0.019, -0.366, -14.587, -21.240, 22.081, 27.630, 20.610
11593, 0.978, -0.215, 0.220, -7.324, -26.184, 0.244, 26.194, -0.417, -0.439, 0.752, 26.855, -7.446, 13.794, 23.699, -0.614, 0.757, 0.024, 21.301, -20.081, -20.691, 22.090, 27.630, 20.630
11625, 0.969, -0.234, 0.180, -7.202, -27.039, -0.366, 26.209, -0.416, -0.429, 0.754, 25.208, -11.169, 18.311, 23.687, -0.673, 0.743, -0.023, 14.465, -21.240, -20.935, 22.063, 27.630, 20.630
11658, 1.000, -0.229, 0.185, -4.395, -30.212, -2.319, 26.203, -0.436, -0.416, 0.768, 22.705, -7.507, 21.362, 23.705, -0.662, 0.782, -0.040, 1.404, -20.264, -11.475, 22.060, 27.610, 20.630
11692, 1.033, -0.216, 0.122, 1.648, -28.381, -4.700, 26.176, -0.513, -0.370, 0.853, 25.085, -8.240, 23.132, 23.690, -0.679, 0.764, 0.011, -23.926, -9.583, -12.329, 22.081, 27.610, 20.610
11724, 1.122, -0.195, 0.067, 4.395, -25.757, -2.380, 26.191, -0.529, -0.355, 0.892, 23.865, -10.742, 12.573, 23.699, -0.761, 0.754, 0.171, -34.973, -1.099, -12.390, 22.093, 27.610, 20.610
11758, 1.196, -0.208, 0.033, -0.122, -15.930, 0.000, 26.188, -0.520, -0.364, 0.949, 15.442, -5.798, 5.615, 23.696, -0.846, 0.761, 0.263, -15.320, 3.235, -11.353, 22.075, 27.470, 20.610
11790, 1.249, -0.278, 0.019, -5.554, -8.667, -0.549, 26.197, -0.502, -0.353, 1.069, 13.672, -3.723, 0.427, 23.711, -0.915, 0.787, 0.201, 16.541, 2.136, -6.714, 22.054, 27.470, 20.610
11823, 1.246, -0.360, 0.023, -1.892, 1.648, -3.174, 26.203, -0.458, -0.317, 1.063, 7.385, -3.235, 0.000, 23.732, -0.923, 0.807, 0.101, 22.888, 3.540, 5.798, 22.063, 27.470, 20.610
11857, 1.206, -0.288, 0.036, 9.705, 9.521, -10.254, 26.197, -0.504, -0.337, 1.018, -17.273, 2.808, 8.545, 23.717, -0.848, 0.816, 0.102, 2.075, 5.493, 13.123, 22.072, 27.110, 20.610
11889, 1.202, -0.204, 0.041, 11.902, 15.930, -10.193, 26.179, -0.547, -0.354, 0.963, -20.813, 1.465, 5.310, 23.708, -0.791, 0.783, 0.208, -0.549, 12.329, 18.616, 22.069, 27.110, 20.630
11921, 1.153, -0.191, 0.067, 10.620, 23.987, -7.935, 26.194, -0.519, -0.365, 0.902, -25.208, 3.967, -1.892, 23.696, -0.724, 0.762, 0.206, 28.442, 13.550, 16.724, 22.069, 27.110, 20.630
11955, 1.064, -0.178, 0.111, 11.536, 27.893, -5.432, 26.191, -0.478, -0.367, 0.824, -26.855, 7.141, -2.136, 23.708, -0.687, 0.738, 0.162, 53.101, -0.549, 8.972, 22.048, 27.150, 20.630
11988, 0.975, -0.155, 0.163, 11.719, 28.503, -4.944, 26.188, -0.453, -0.393, 0.721, -32.166, 5.798, -1.770, 23.705, -0.566, 0.708, 0.092, 84.961, -9.216, 9.583, 22.072, 27.150, 20.610
12020, 0.896, -0.104, 0.206, 10.620, 26.367, -6.287, 26.200, -0.452, -0.413, 0.621, -27.893, 6.470, -0.305, 23.717, -0.491, 0.719, -0.019, 77.759, -1.160, -12.695, 22.081, 27.150, 20.610
12054, 0.846, -0.027, 0.250, 10.620, 21.606, -7.019, 26.206, -0.497, -0.437, 0.545, -26.428, 4.578, 2.258, 23.717, -0.458, 0.682, -0.021, 70.862, -31.433, 5.005, 22.066, 26.910, 20.610
12086, 0.820, 0.022, 0.271, 6.409, 16.968, -1.526, 26.176, -0.528, -0.453, 0.507, -20.813, -1.587, 3.784, 23.708, -0.411, 0.710, -0.017, 98.145, -48.889, 33.875, 22.093, 26.910, 20.610
12118, 0.817, 0.049, 0.290, 0.732, 8.240, 6.836, 26.185, -0.540, -0.479, 0.480, -12.268, -10.132, 1.099, 23.714, -0.294, 0.762, -0.153, 55.725, -24.963, -4.700, 22.063, 26.910, 20.610
12153, 0.805, 0.011, 0.297, -6.348, 2.686, 13.123, 26.206, -0.499, -0.474, 0.486, 1.892, -14.221, -3.723, 23.708, -0.374, 0.713, -0.165, 26.672, -23.682, -25.574, 22.078, 26.290, 20.610
12185, 0.799, -0.048, 0.298, -10.132, -5.066, 17.029, 26.194, -0.453, -0.472, 0.506, 12.451, -18.555, -5.554, 23.717, -0.442, 0.696, -0.194, 20.386, -11.719, -25.879, 22.078, 26.290, 20.630
12219, 0.813, -0.086, 0.298, -11.536, -12.512, 17.700, 26.194, -0.421, -0.476, 0.542, 17.212, -17.761, -2.258, 23.708, -0.483, 0.722, -0.119, 6.653, -11.414, -32.349, 22.096, 26.110, 20.630
12251, 0.849, -0.099, 0.264, -14.832, -22.827, 15.503, 26.200, -0.433, -0.479, 0.588, 24.231, -21.240, 3.479, 23.693, -0.552, 0.671, -0.071, -3.845, -32.532, -52.917, 22.102, 26.110, 20.630
12283, 0.902, -0.135, 0.213, -19.592, -26.794, 13.672, 26.200, -0.417, -0.443, 0.646, 34.058, -16.846, -3.540, 23.726, -0.699, 0.687, -0.012, -5.249, -37.170, -45.105, 22.078, 26.110, 20.630
12318, 0.935, -0.175, 0.181, -22.827, -28.564, 9.399, 26.200, -0.386, -0.412, 0.688, 40.344, -10.681, -4.333, 23.741, -0.661, 0.684, -0.066, 19.836, -30.029, -20.996, 22.105, 25.870, 20.630
12351, 0.944, -0.215, 0.151, -20.142, -30.029, 5.737, 26.209, -0.398, -0.374, 0.771, 39.917, -8.667, 1.526, 23.702, -0.649, 0.694, -0.048, 3.845, -30.640, -17.944, 22.111, 25.870, 20.630
12384, 1.001, -0.198, 0.126, -15.686, -33.203, 5.066, 26.206, -0.427, -0.368, 0.811, 34.058, -11.658, 5.493, 23.708, -0.712, 0.687, 0.000, -22.583, -26.733, -29.053, 22.093, 25.870, 20.610
12419, 1.056, -0.258, 0.026, -14.221, -28.748, 6.348, 26.188, -0.397, -0.309, 0.909, 38.208, -13.306, 3.418, 23.720, -0.802, 0.675, 0.101, -24.536, -15.808, -20.874, 22.072, 25.910, 20.610
12452, 1.125, -0.301, 0.015, -8.545, -22.095, 6.409, 26.179, -0.394, -0.285, 0.981, 29.175, -7.019, 3.723, 23.717, -0.849, 0.669, 0.134, -18.616, 3.113, -10.681, 22.054, 25.910, 20.610
12487, 1.139, -0.308, -0.011, -2.808, -16.846, 4.822, 26.200, -0.396, -0.302, 1.018, 15.320, -8.789, 7.935, 23.717, -0.879, 0.684, 0.196, -14.404, 1.526, -7.996, 22.057, 25.910, 20.630
12520, 1.167, -0.290, -0.003, 0.610, -11.902, 2.075, 26.200, -0.431, -0.301, 1.017, 10.132, -8.972, 11.414, 23.729, -0.905, 0.679, 0.183, -0.244, -2.380, -9.155, 22.078, 26.110, 20.630
12553, 1.158, -0.277, -0.009, 0.977, -3.357, 0.854, 26.176, -0.431, -0.297, 1.015, 2.563, -8.179, 5.310, 23.714, -0.896, 0.688, 0.173, 9.705, 0.000, 2.747, 22.078, 26.110, 20.610
12588, 1.141, -0.268, -0.002, 0.916, 2.563, -0.366, 26.203, -0.437, -0.298, 0.988, -0.793, -8.240, 1.343, 23.738, -0.820, 0.693, 0.157, 6.409, 7.263, 11.169, 22.084, 26.110, 20.610
12621, 1.104, -0.218, 0.004, 0.854, 7.446, 1.770, 26.215, -0.437, -0.309, 0.929, -9.827, -9.399, -2.686, 23.723, -0.769, 0.677, 0.208, 2.991, -2.197, -0.366, 22.069, 26.110, 20.610
12654, 1.070, -0.205, 0.022, -0.977, 10.071, 2.747, 26.215, -0.422, -0.310, 0.899, -8.484, -7.874, -2.075, 23.729, -0.757, 0.663, 0.192, 13.855, -0.916, -5.432, 22.057, 26.110, 20.610
12689, 1.034, -0.238, 0.065, -2.808, 11.719, 5.249, 26.194, -0.371, -0.340, 0.858, -13.794, -9.338, -4.761, 23.747, -0.780, 0.672, 0.105, 36.377, 2.258, -3.784, 22.075, 26.110, 20.610
12722, 0.979, -0.243, 0.083, -1.831, 11.719, 3.113, 26.185, -0.358, -0.353, 0.834, -14.526, -5.615, 1.953, 23.747, -0.789, 0.636, 0.104, 33.508, -5.737, -7.996, 22.072, 26.030, 20.610
12755, 0.990, -0.265, 0.080, -3.906, 9.644, 0.793, 26.197, -0.311, -0.351, 0.832, -5.737, -6.592, -7.263, 23.720, -0.766, 0.614, 0.063, 36.255, -22.522, -5.615, 22.075, 26.030, 20.610
12790, 0.968, -0.267, 0.089, -3.784, 9.338, -4.089, 26.203, -0.319, -0.366, 0.830, -7.446, -0.183, -4.456, 23.735, -0.729, 0.633, -0.039, 48.218, 0.671, 14.343, 22.078, 26.030, 20.610
12823, 0.936, -0.272, 0.113, 0.549, 3.784, -1.404, 26.194, -0.314, -0.360, 0.813, -6.470, -0.793, 2.197, 23.717, -0.682, 0.645, -0.057, 11.841, 6.042, 5.859, 22.075, 25.810, 20.610
12858, 0.940, -0.211, 0.118, 2.441, -0.610, -0.916, 26.194, -0.349, -0.393, 0.778, -7.690, -6.592, 6.836, 23.735, -0.704, 0.629, 0.020, -4.639, 1.953, -1.648, 22.054, 25.810, 20.610
12891, 0.963, -0.172, 0.105, -0.122, -1.831, -2.075, 26.215, -0.391, -0.390, 0.785, -1.282, -3.906, 6.042, 23.768, -0.673, 0.650, 0.086, -1.038, 3.296, 1.221, 22.060, 25.810, 20.610
12924, 0.989, -0.160, 0.122, -7.263, -3.052, -0.061, 26.221, -0.399, -0.406, 0.784, 2.014, -6.226, -5.249, 23.729, -0.648, 0.657, 0.068, 10.925, -3.235, -11.292, 22.066, 25.930, 20.610
12959, 1.002, -0.210, 0.077, -12.085, -1.831, 0.000, 26.179, -0.351, -0.360, 0.820, 15.076, 1.282, -13.367, 23.741, -0.755, 0.675, 0.006, 6.165, 14.587, -9.766, 22.051, 25.930, 20.610
12992, 1.009, -0.199, 0.067, -9.705, 1.160, -1.770, 26.191, -0.375, -0.341, 0.863, 9.216, 5.737, -11.597, 23.738, -0.709, 0.671, 0.078, -18.677, 12.817, -3.418, 22.066, 25.930, 20.610
13025, 1.042, -0.146, 0.071, -11.597, 1.343, -2.563, 26.200, -0.433, -0.362, 0.849, 2.319, -0.488, -9.644, 23.738, -0.744, 0.676, 0.161, -21.301, 9.583, -14.832, 22.081, 26.230, 20.610
13060, 1.045, -0.145, 0.053, -18.250, 8.179, -2.747, 26.203, -0.426, -0.388, 0.868, -0.122, -2.197, -25.513, 23.738, -0.794, 0.666, 0.167, -6.104, 11.963, -0.183, 22.081, 26.230, 20.630
13093, 1.104, -0.160, 0.067, -26.550, 10.803, -4.333, 26.218, -0.450, -0.421, 0.833, 8.728, 4.395, -47.668, 23.747, -0.806, 0.704, 0.072, 15.015, 29.724, 18.005, 22.069, 26.230, 20.630
13126, 1.088, -0.166, 0.053, -32.715, 21.667, -9.766, 26.215, -0.365, -0.396, 0.851, 14.099, 31.189, -74.585, 23.753, -0.747, 0.670, 0.151, -22.827, 22.583, 19.348, 22.081, 26.550, 20.630
13161, 1.102, -0.157, 0.063, -40.649, 24.048, -10.620, 26.203, -0.415, -0.377, 0.872, 16.663, 35.034, -81.360, 23.735, -0.792, 0.663, 0.220, -10.742, 5.859, -0.488, 22.090, 26.550, 20.630
13194, 1.054, -0.219, 0.080, -44.250, 30.884, -12.146, 26.218, -0.308, -0.371, 0.904, 30.823, 11.658, -64.575, 23.741, -0.835, 0.656, 0.100, 34.302, 7.080, 20.752, 22.078, 26.550, 20.630
13229, 0.994, -0.332, 0.103, -36.743, 32.654, -12.390, 26.191, -0.218, -0.328, 0.897, -1.770, 26.794, -56.213, 23.750, -0.784, 0.687, -0.060, 36.682, 16.846, 33.325, 22.069, 27.110, 20.630
13262, 0.972, -0.294, 0.127, -20.264, 26.123, -20.203, 26.206, -0.250, -0.365, 0.853, -8.057, 29.480, -28.442, 23.771, -0.729, 0.693, -0.071, -3.601, 7.080, 39.856, 22.099, 27.110, 20.630
13295, 0.970, -0.187, 0.121, -12.512, 22.522, -20.874, 26.203, -0.300, -0.417, 0.798, -13.000, 32.471, -21.301, 23.750, -0.630, 0.670, 0.063, -31.250, 0.061, 32.715, 22.087, 27.110, 20.630
13330, 1.002, -0.122, 0.141, -14.954, 18.738, -16.479, 26.194, -0.330, -0.435, 0.776, -3.601, 31.433, -24.780, 23.744, -0.688, 0.680, 0.140, 2.686, 14.954, 26.855, 22.093, 28.050, 20.630
13363, 0.994, -0.142, 0.136, -20.447, 23.743, -18.066, 26.218, -0.369, -0.423, 0.808, 0.793, 27.588, -27.283, 23.771, -0.674, 0.729, 0.077, 4.578, 10.620, 23.743, 22.084, 28.050, 20.590
13396, 1.014, -0.132, 0.158, -22.400, 19.043, -17.090, 26.197, -0.366, -0.460, 0.793, -1.160, 32.043, -30.029, 23.762, -0.641, 0.721, 0.050, -4.944, -1.343, 21.912, 22.123, 27.750, 20.590
13431, 1.001, -0.136, 0.173, -26.611, 17.029, -15.381, 26.206, -0.368, -0.478, 0.785, 2.747, 31.372, -31.921, 23.744, -0.679, 0.710, 0.130, -20.203, -2.747, 5.859, 22.084, 27.750, 20.590
13464, 0.996, -0.125, 0.177, -28.687, 14.099, -18.127, 26.236, -0.383, -0.462, 0.769, 5.371, 35.583, -34.058, 23.789, -0.659, 0.743, 0.190, 7.568, -8.179, 25.391, 22.096, 27.750, 20.610
13497, 1.021, -0.053, 0.178, -33.752, 13.611, -21.240, 26.230, -0.422, -0.466, 0.742, 6.714, 39.917, -39.429, 23.768, -0.611, 0.718, 0.156, 8.728, -16.541, 12.390, 22.114, 27.670, 20.610
13532, 1.039, -0.042, 0.175, -42.297, 17.273, -20.447, 26.188, -0.451, -0.479, 0.750, 9.094, 44.678, -52.734, 23.762, -0.604, 0.750, 0.141, 24.597, -4.028, 7.080, 22.102, 27.670, 20.610
13565, 1.015, -0.077, 0.146, -47.791, 25.757, -20.630, 26.188, -0.424, -0.432, 0.778, 12.329, 47.607, -60.059, 23.795, -0.621, 0.714, 0.180, 18.677, -6.531, -3.662, 22.096, 27.670, 20.610
13600, 1.048, -0.100, 0.167, -51.941, 21.179, -16.785, 26.233, -0.409, -0.441, 0.802, 12.634, 48.218, -56.030, 23.774, -0.671, 0.753, 0.126, 32.288, -6.042, -2.563, 22.090, 27.490, 20.610
13633, 1.028, -0.146, 0.190, -50.964, 25.696, -17.334, 26.236, -0.379, -0.448, 0.811, 3.540, 43.640, -47.546, 23.777, -0.660, 0.770, 0.042, 39.856, -10.742, 6.592, 22.084, 27.490, 20.630
13666, 1.009, -0.163, 0.199, -45.776, 25.757, -17.517, 26.212, -0.390, -0.443, 0.817, 4.395, 35.706, -36.865, 23.762, -0.662, 0.790, 0.037, 26.245, -7.996, 11.292, 22.081, 27.490, 20.630
13701, 1.015, -0.151, 0.215, -34.363, 21.973, -16.052, 26.233, -0.400, -0.456, 0.788, -1.953, 29.236, -28.687, 23.795, -0.627, 0.775, 0.049, 19.226, -0.793, 8.911, 22.105, 27.350, 20.630
13734, 0.990, -0.120, 0.224, -24.353, 21.240, -13.794, 26.206, -0.415, -0.467, 0.756, -5.066, 27.283, -22.766, 23.780, -0.588, 0.762, 0.043, 14.343, 4.822, 5.432, 22.090, 27.350, 20.610
13767, 1.000, -0.062, 0.228, -18.921, 17.395, -9.949, 26.197, -0.467, -0.488, 0.747, -5.188, 24.658, -22.766, 23.756, -0.589, 0.757, 0.089, 4.883, 6.836, -0.183, 22.111, 27.350, 20.610
13802, 1.010, -0.054, 0.242, -20.203, 16.052, -3.967, 26.230, -0.445, -0.514, 0.730, -4.578, 18.005, -25.146, 23.780, -0.609, 0.748, 0.151, 15.259, -0.305, 2.014, 22.087, 27.230, 20.610
13835, 0.977, -0.161, 0.240, -23.010, 17.517, 1.160, 26.203, -0.336, -0.503, 0.766, 0.977, 8.972, -27.100, 23.780, -0.689, 0.751, -0.016, 33.386, 22.339, -0.610, 22.090, 27.230, 20.610
13868, 1.019, -0.252, 0.246, -14.038, 10.315, -0.305, 26.230, -0.316, -0.468, 0.820, 1.099, 12.573, -7.019, 23.792, -0.718, 0.796, -0.029, 17.395, 8.301, 5.005, 22.072, 27.230, 20.610
13903, 1.043, -0.135, 0.246, -4.395, 10.254, -5.249, 26.185, -0.414, -0.543, 0.784, -8.301, 8.972, -2.930, 23.777, -0.668, 0.750, 0.039, -1.526, 0.549, 4.700, 22.111, 27.090, 20.610
13936, 1.042, -0.119, 0.254, -6.042, 10.559, -0.427, 26.200, -0.391, -0.532, 0.765, -2.258, 14.099, -3.845, 23.780, -0.672, 0.750, 0.071, 13.184, 7.751, 3.296, 22.090, 27.090, 20.650
13971, 1.013, -0.107, 0.265, -10.315, 10.559, -0.916, 26.209, -0.403, -0.545, 0.737, -0.610, 9.338, -10.925, 23.806, -0.653, 0.756, 0.050, 18.311, 0.732, 3.906, 22.081, 27.090, 20.650
14004, 0.962, -0.107, 0.289, -12.146, 10.437, -0.671, 26.206, -0.382, -0.537, 0.687, -0.366, 10.315, -11.780, 23.786, -0.603, 0.750, 0.018, 20.020, -0.122, 2.197, 22.102, 27.030, 20.650
14037, 0.929, -0.126, 0.307, -12.634, 8.728, -0.732, 26.197, -0.352, -0.532, 0.661, -0.916, 5.371, -10.559, 23.809, -0.585, 0.747, -0.023, 22.217, 0.916, 2.991, 22.084, 27.030, 20.610
14072, 0.902, -0.111, 0.317, -10.742, 6.104, -3.357, 26.227, -0.366, -0.551, 0.628, 0.305, 7.385, -5.737, 23.795, -0.555, 0.746, -0.017, 13.977, -4.211, 0.610, 22.093, 27.030, 20.610
14105, 0.908, -0.047, 0.301, -14.465, 4.883, -4.028, 26.215, -0.424, -0.558, 0.600, 3.906, 10.132, -8.362, 23.800, -0.542, 0.726, 0.061, 14.954, -10.193, -1.587, 22.108, 26.990, 20.610
14138, 0.903, -0.031, 0.331, -22.461, 6.592, -3.418, 26.236, -0.409, -0.568, 0.572, 6.042, 14.221, -15.747, 23.809, -0.523, 0.745, 0.022, 29.907, -10.193, -1.343, 22.114, 26.990, 20.650
14173, 0.893, -0.085, 0.328, -24.902, 1.770, -3.845, 26.230, -0.391, -0.549, 0.619, 13.794, 11.963, -15.381, 23.812, -0.528, 0.768, -0.032, 25.208, -9.888, -4.822, 22.105, 26.990, 20.650
14206, 0.927, -0.119, 0.318, -21.240, 0.061, -4.150, 26.224, -0.354, -0.529, 0.648, 10.986, 9.155, -9.888, 23.774, -0.583, 0.761, -0.024, 23.865, -5.859, -7.202, 22.102, 27.050, 20.650
14239, 0.947, -0.124, 0.318, -17.212, -0.305, -6.470, 26.224, -0.395, -0.546, 0.659, 7.263, 10.803, -6.470, 23.797, -0.583, 0.786, -0.053, 22.217, -7.141, -1.404, 22.123, 27.050, 20.610
14274, 0.959, -0.122, 0.307, -11.841, -0.610, -7.446, 26.224, -0.410, -0.524, 0.682, 10.437, 12.085, -2.380, 23.800, -0.575, 0.785, -0.014, 6.165, -7.202, -0.427, 22.096, 27.050, 20.610
14307, 0.979, -0.082, 0.304, -7.507, 0.366, -6.470, 26.215, -0.436, -0.536, 0.685, 3.967, 8.423, -1.892, 23.815, -0.584, 0.775, 0.032, 8.118, -4.028, -0.366, 22.105, 27.030, 20.610
14342, 0.988, -0.046, 0.284, -7.019, 2.075, -6.104, 26.239, -0.469, -0.550, 0.678, 3.357, 7.996, -1.770, 23.809, -0.593, 0.774, 0.071, 7.080, -3.479, -0.061, 22.123, 27.030, 20.630
14375, 1.019, -0.035, 0.279, -9.583, 4.272, -4.272, 26.230, -0.487, -0.539, 0.699, 4.639, 6.287, -5.066, 23.803, -0.600, 0.774, 0.085, 16.968, 0.427, 0.977, 22.123, 27.030, 20.630
14408, 1.036, -0.086, 0.268, -9.094, 6.714, -0.732, 26.200, -0.469, -0.515, 0.747, 2.197, 1.953, -7.935, 23.795, -0.671, 0.771, 0.062, 26.428, 11.169, -4.150, 22.093, 27.030, 20.630
14443, 1.064, -0.083, 0.280, -7.263, 7.507, 0.122, 26.203, -0.463, -0.541, 0.747, -2.197, 2.625, -5.920, 23.797, -0.642, 0.826, 0.007, 36.499, 10.925, 4.883, 22.117, 27.030, 20.630
14476, 1.022, -0.125, 0.281, -3.967, 10.132, 0.000, 26.194, -0.437, -0.534, 0.747, -3.540, 1.770, -5.554, 23.777, -0.632, 0.809, -0.038, 16.663, 10.620, 2.197, 22.096, 27.030, 20.630
14509, 1.024, -0.103, 0.286, -0.854, 9.155, 1.038, 26.218, -0.443, -0.552, 0.728, -5.005, 2.014, -3.296, 23.815, -0.658, 0.797, 0.038, 13.062, 9.277, 1.404, 22.126, 27.030, 20.630
14544, 1.018, -0.073, 0.291, -1.465, 10.071, -0.122, 26.218, -0.446, -0.548, 0.707, -4.822, 1.587, -5.249, 23.800, -0.630, 0.782, 0.019, 14.526, 8.240, 5.371, 22.102, 27.030, 20.630
14576, 1.004, -0.083, 0.299, -2.625, 9.216, 0.916, 26.233, -0.431, -0.564, 0.696, -5.920, 0.732, -4.089, 23.797, -0.625, 0.798, -0.016, 24.048, 8.789, 5.798, 22.129, 27.050, 20.630
14608, 0.989, -0.071, 0.302, -3.357, 8.545, -0.854, 26.203, -0.453, -0.556, 0.680, -3.479, 2.747, -5.310, 23.812, -0.606, 0.777, -0.003, 11.353, 0.122, 2.258, 22.111, 27.050, 20.630
14642, 0.969, -0.067, 0.315, -5.127, 8.301, 0.000, 26.218, -0.423, -0.566, 0.652, -2.747, 3.540, -5.798, 23.815, -0.623, 0.759, 0.022, 26.245, -8.301, 6.714, 22.138, 27.050, 20.650
14674, 0.944, -0.086, 0.331, -6.165, 5.920, -1.099, 26.224, -0.412, -0.562, 0.639, -0.183, 4.822, -2.869, 23.815, -0.598, 0.765, 0.002, 51.331, -40.466, 25.818, 22.087, 27.110, 20.650
14706, 0.944, -0.067, 0.328, -7.080, 2.869, -0.732, 26.230, -0.424, -0.566, 0.641, 0.610, 4.517, -1.587, 23.789, -0.558, 0.800, -0.066, 28.076, -1.831, -3.357, 22.111, 27.110, 20.650
14740, 0.943, -0.055, 0.322, -7.202, 1.343, -0.854, 26.200, -0.439, -0.563, 0.632, 2.319, 4.517, -1.953, 23.815, -0.538, 0.783, -0.006, 23.315, -10.132, -10.010, 22.087, 27.110, 20.610
14772, 0.937, -0.039, 0.330, -8.118, -0.061, -0.488, 26.233, -0.437, -0.565, 0.625, 3.174, 4.150, 0.671, 23.818, -0.527, 0.732, 0.042, 65.308, -54.626, 6.836, 22.105, 27.150, 20.610
14806, 0.929, -0.036, 0.314, -12.756, -3.235, 4.944, 26.227, -0.455, -0.572, 0.622, 5.676, 1.160, 1.770, 23.821, -0.488, 0.793, -0.044, 75.317, -61.829, -17.273, 22.090, 27.150, 20.610
14838, 0.970, -0.057, 0.318, -18.616, -6.714, 6.104, 26.236, -0.444, -0.570, 0.641, 9.094, -2.808, -0.122, 23.818, -0.612, 0.765, -0.008, 40.100, -59.265, -39.978, 22.111, 27.150, 20.610
14870, 0.968, -0.109, 0.317, -19.897, -5.859, 5.066, 26.233, -0.400, -0.560, 0.668, 8.240, -4.639, 2.930, 23.821, -0.699, 0.777, -0.042, 55.237, -54.199, -29.541, 22.111, 26.930, 20.610
14904, 0.972, -0.182, 0.284, -15.381, -5.066, 3.113, 26.227, -0.353, -0.547, 0.725, 9.094, -4.089, 12.268, 23.824, -0.716, 0.697, -0.102, 37.659, -53.101, -26.306, 22.123, 26.930, 20.610
14936, 1.028, -0.216, 0.285, -11.841, -9.827, 1.709, 26.233, -0.383, -0.532, 0.761, 3.235, -1.282, 20.691, 23.821, -0.948, 0.596, 0.053, 58.777, -88.806, 8.240, 22.123, 26.930, 20.610
14968, 1.062, -0.164, 0.288, -0.061, -1.892, -3.296, 26.209, -0.465, -0.546, 0.758, -2.686, 6.104, 15.442, 23.848, -0.542, 0.938, -0.204, 196.899, -80.872, 84.534, 22.123, 26.470, 20.610
15002, 1.086, -0.101, 0.276, -5.432, 2.808, -5.676, 26.224, -0.485, -0.553, 0.759, 1.648, 6.409, 5.493, 23.806, -0.570, 0.871, -0.270, 22.522, -26.978, -2.258, 22.117, 26.470, 20.610
15034, 1.014, -0.149, 0.269, -4.272, 9.583, -5.920, 26.230, -0.455, -0.535, 0.743, -0.061, 7.507, -6.104, 23.821, -0.725, 0.791, -0.009, -28.442, -11.475, -7.202, 22.105, 26.470, 20.610
15066, 1.014, -0.110, 0.289, -2.747, 9.277, -4.944, 26.239, -0.409, -0.551, 0.695, -3.784, 8.179, -5.188, 23.848, -0.604, 0.749, 0.003, 31.372, 2.258, 20.264, 22.114, 25.970, 20.610
15100, 0.997, -0.110, 0.291, -6.226, 9.338, -7.629, 26.224, -0.432, -0.541, 0.696, -1.160, 12.329, 1.709, 23.836, -0.643, 0.742, -0.008, 28.137, -21.484, 3.784, 22.087, 25.970, 20.630
15132, 0.995, -0.104, 0.305, -7.751, 10.742, -9.399, 26.221, -0.463, -0.550, 0.683, -5.981, 11.230, -3.235, 23.815, -0.604, 0.789, -0.111, 45.227, -13.184, 15.198, 22.102, 25.970, 20.630
15166, 0.950, -0.102, 0.312, -8.118, 12.451, -9.277, 26.224, -0.433, -0.557, 0.652, -1.892, 12.817, -2.747, 23.830, -0.542, 0.833, -0.153, 20.447, -1.709, 6.104, 22.117, 25.750, 20.630
15198, 0.942, -0.101, 0.333, -6.226, 6.897, -7.935, 26.221, -0.458, -0.554, 0.647, -1.038, 11.047, -1.831, 23.821, -0.672, 0.804, -0.058, 4.578, -2.136, -1.648, 22.120, 25.750, 20.650
15230, 0.941, -0.073, 0.332, -4.150, 5.432, -9.216, 26.218, -0.452, -0.558, 0.625, 1.099, 7.812, -2.930, 23.821, -0.542, 0.697, 0.017, 5.859, -13.977, 4.150, 22.084, 25.750, 20.650
15264, 0.952, -0.042, 0.335, -11.292, 3.113, -9.460, 26.230, -0.441, -0.562, 0.608, 0.061, 6.836, 2.319, 23.839, -0.752, 0.769, -0.014, 48.584, -6.775, 13.428, 22.141, 25.670, 20.650
15296, 0.910, -0.074, 0.339, -11.414, 5.554, -18.005, 26.236, -0.466, -0.560, 0.599, 1.038, 2.686, 2.747, 23.845, -0.308, 0.753, -0.080, 131.042, -114.563, 72.083, 22.117, 25.670, 20.630
15328, 0.962, -0.001, 0.326, -17.700, -2.930, -15.198, 26.224, -0.488, -0.557, 0.610, 6.653, -0.305, 0.061, 23.815, -0.478, 0.863, -0.255, 84.351, -64.636, 20.996, 22.129, 25.670, 20.630
15362, 0.938, -0.071, 0.339, -21.606, 0.854, -10.803, 26.212, -0.463, -0.556, 0.619, 4.456, -2.563, -1.343, 23.845, -0.392, 0.849, -0.231, 58.472, -11.353, 10.132, 22.114, 25.610, 20.630
15395, 0.932, -0.071, 0.337, -16.541, -0.854, -4.333, 26.224, -0.485, -0.554, 0.625, 5.005, 0.061, -0.549, 23.836, -0.537, 0.740, -0.204, 41.443, -5.310, -0.427, 22.102, 25.610, 20.610
15427, 0.953, -0.053, 0.318, -11.108, -2.014, -1.038, 26.227, -0.454, -0.549, 0.640, 9.033, -2.625, -1.709, 23.851, -0.547, 0.768, -0.094, 49.622, 4.761, 5.920, 22.126, 25.610, 20.610
15461, 0.991, -0.044, 0.306, -19.226, -2.441, -3.357, 26.224, -0.469, -0.529, 0.668, 9.888, -3.540, 1.282, 23.851, -0.486, 0.860, -0.217, 59.998, 0.671, 1.099, 22.123, 25.910, 20.610
15493, 1.003, -0.098, 0.302, -14.343, -1.465, -3.906, 26.251, -0.484, -0.542, 0.695, 5.554, -3.723, -6.287, 23.833, -0.540, 0.849, -0.287, 28.320, -11.047, -10.315, 22.114, 25.910, 20.630
15527, 1.000, -0.061, 0.302, -7.202, 0.000, 2.502, 26.215, -0.485, -0.541, 0.697, 6.165, 2.197, -3.906, 23.839, -0.471, 0.858, -0.224, 12.390, -14.404, -9.827, 22.108, 25.910, 20.630
15560, 1.019, -0.056, 0.281, -8.545, 0.916, 7.263, 26.224, -0.492, -0.536, 0.717, 4.700, -3.662, -7.080, 23.842, -0.656, 0.828, -0.164, 12.085, -28.259, -30.884, 22.123, 26.110, 20.630
15592, 1.042, -0.072, 0.290, -7.263, 2.808, 5.005, 26.224, -0.472, -0.534, 0.711, 5.432, -2.258, -9.033, 23.845, -0.700, 0.759, -0.134, 17.395, -0.122, -7.263, 22.123, 26.110, 20.650
15626, 1.036, -0.112, 0.303, -7.019, 3.845, 2.625, 26.242, -0.452, -0.543, 0.724, 4.822, 1.343, -8.545, 23.839, -0.588, 0.833, -0.230, 11.230, 4.761, -1.099, 22.132, 26.110, 20.650
15658, 1.009, -0.088, 0.294, -3.784, 4.761, 3.967, 26.251, -0.443, -0.556, 0.709, 2.075, 1.343, -7.812, 23.863, -0.572, 0.833, -0.221, -1.709, -2.014, -1.526, 22.096, 25.970, 20.650
15690, 1.015, -0.116, 0.309, -3.906, 5.676, 4.517, 26.230, -0.449, -0.544, 0.718, 4.700, 5.127, -5.615, 23.842, -0.645, 0.804, -0.224, -17.517, -0.671, 1.221, 22.132, 25.970, 20.650
15725, 1.009, -0.110, 0.301, 1.404, 4.639, 2.441, 26.230, -0.443, -0.535, 0.713, 1.221, 3.601, -6.409, 23.866, -0.609, 0.792, -0.154, -20.752, 11.047, 13.611, 22.117, 25.970, 20.650
15757, 1.001, -0.081, 0.308, 2.441, 4.028, 1.770, 26.218, -0.444, -0.554, 0.698, -1.709, 2.441, -4.883, 23.833, -0.552, 0.818, -0.209, -20.752, 22.766, -0.366, 22.117, 25.670, 20.650
15789, 1.000, -0.075, 0.311, 2.869, 4.700, 2.014, 26.230, -0.466, -0.553, 0.685, 2.075, 6.470, -4.883, 23.851, -0.386, 0.926, -0.292, -52.795, 59.326, -16.663, 22.132, 25.670, 20.610
15823, 0.980, -0.071, 0.315, 0.793, 7.446, 7.690, 26.215, -0.473, -0.553, 0.680, 0.061, 4.944, -10.803, 23.851, -0.557, 0.759, -0.175, -31.494, 55.237, -2.197, 22.108, 25.670, 20.610
15855, 0.966, -0.058, 0.333, -0.427, 4.822, 9.399, 26.230, -0.444, -0.564, 0.653, 0.427, 3.418, -9.460, 23.863, -0.607, 0.722, -0.164, -14.832, 71.777, 4.761, 22.120, 25.230, 20.610
15890, 0.947, -0.097, 0.338, 1.526, 6.104, 7.568, 26.236, -0.434, -0.556, 0.642, -2.075, 1.892, -8.606, 23.833, -0.512, 0.810, -0.267, -50.659, 55.542, -3.357, 22.105, 25.230, 20.650
15922, 0.938, -0.093, 0.336, 1.343, 3.479, 4.456, 26.218, -0.420, -0.564, 0.630, -0.488, 1.160, -7.568, 23.869, -0.748, 0.793, -0.158, -42.969, 93.140, 3.662, 22.129, 25.230, 20.650
15954, 0.936, -0.123, 0.331, 2.808, 1.404, 2.319, 26.227, -0.394, -0.577, 0.641, 0.916, 2.930, -5.188, 23.866, -0.567, 0.740, -0.091, -56.030, 40.588, 0.977, 22.105, 26.470, 20.650
15988, 0.975, -0.093, 0.314, 2.441, -1.526, 1.038, 26.227, -0.431, -0.554, 0.674, 6.470, 5.493, -3.540, 23.872, -0.571, 0.784, -0.078, -30.945, 44.983, -1.648, 22.114, 26.470, 20.630
16021, 0.972, -0.106, 0.324, -1.404, 2.686, 1.160, 26.251, -0.417, -0.556, 0.673, 0.244, 3.052, -4.028, 23.857, -0.570, 0.780, -0.143, -26.184, 33.020, -1.770, 22.138, 26.470, 20.630
16054, 0.968, -0.127, 0.334, -0.427, 2.258, -0.793, 26.254, -0.407, -0.559, 0.680, 3.052, 2.441, -2.136, 23.860, -0.631, 0.792, -0.130, -21.301, 23.743, -2.991, 22.108, 27.210, 20.630
16089, 0.981, -0.133, 0.313, 1.770, 2.136, -1.221, 26.245, -0.419, -0.556, 0.689, 0.305, 2.014, -0.671, 23.872, -0.578, 0.798, -0.122, -7.874, 16.235, 4.639, 22.123, 27.210, 20.650
16122, 0.993, -0.100, 0.319, 1.953, 2.747, -1.221, 26.230, -0.441, -0.580, 0.690, -2.563, 2.686, 0.305, 23.860, -0.565, 0.810, -0.110, -4.822, 13.794, 1.282, 22.111, 27.210, 20.650
16155, 0.992, -0.105, 0.324, 0.488, 2.563, 0.122, 26.227, -0.448, -0.569, 0.692, 0.671, 1.038, -0.366, 23.872, -0.549, 0.827, -0.157, -1.892, 17.761, 2.686, 22.126, 27.210, 20.650
16190, 0.989, -0.113, 0.325, 0.488, 3.723, 0.793, 26.251, -0.434, -0.572, 0.686, -0.854, 0.549, -3.296, 23.869, -0.558, 0.803, -0.117, -15.869, 16.479, -2.380, 22.111, 27.210, 20.630
16223, 0.969, -0.110, 0.335, 0.916, 3.357, 1.709, 26.254, -0.431, -0.568, 0.662, -1.648, 0.793, -2.319, 23.887, -0.576, 0.812, -0.109, -9.155, 15.991, -1.526, 22.135, 27.210, 20.630
16256, 0.970, -0.099, 0.335, 0.916, 2.869, 0.427, 26.233, -0.428, -0.583, 0.654, -0.549, 1.221, -2.258, 23.857, -0.530, 0.806, -0.135, -0.977, 11.902, 0.183, 22.129, 27.210, 20.630
16291, 0.949, -0.091, 0.329, -0.244, 2.502, 0.549, 26.236, -0.435, -0.565, 0.648, 2.563, 2.686, -0.183, 23.863, -0.544, 0.815, -0.141, -6.226, 13.367, -0.671, 22.123, 27.210, 20.630
16324, 0.963, -0.093, 0.329, -1.526, 1.282, 1.221, 26.236, -0.435, -0.578, 0.650, 1.099, 1.648, -2.869, 23.872, -0.531, 0.797, -0.096, -13.367, 15.808, -5.676, 22.123, 27.210, 20.630
16359, 0.958, -0.090, 0.332, -3.906, 0.427, 2.136, 26.224, -0.432, -0.576, 0.656, 3.601, 1.892, -3.052, 23.878, -0.552, 0.804, -0.085, 0.244, 3.235, -4.944, 22.123, 27.210, 20.630
16392, 0.969, -0.111, 0.344, -5.127, -0.305, 2.441, 26.242, -0.419, -0.583, 0.658, 3.174, 0.061, -3.662, 23.878, -0.533, 0.863, -0.183, 11.658, 3.784, 0.366, 22.108, 27.210, 20.630
16425, 0.979, -0.126, 0.341, -2.991, 0.671, 0.427, 26.230, -0.434, -0.564, 0.677, 6.348, 0.977, -3.174, 23.872, -0.533, 0.867, -0.310, -17.944, 33.691, 5.188, 22.102, 27.210, 20.630
16460, 0.988, -0.127, 0.310, 1.404, -0.366, 1.099, 26.242, -0.436, -0.562, 0.702, 4.028, 3.357, -3.845, 23.902, -0.638, 0.749, -0.014, -77.271, 32.227, -9.705, 22.108, 27.210, 20.630
16493, 1.016, -0.097, 0.310, 2.380, -0.793, 0.305, 26.230, -0.438, -0.575, 0.716, 0.671, 2.136, -3.479, 23.875, -0.612, 0.814, 0.033, -15.442, 33.203, 7.629, 22.117, 27.210, 20.630
16526, 1.038, -0.113, 0.309, -0.671, 5.249, 0.366, 26.233, -0.444, -0.563, 0.723, 1.282, 2.014, -3.296, 23.869, -0.592, 0.838, -0.042, -0.366, 12.207, 10.925, 22.123, 27.210, 20.630
16561, 1.011, -0.128, 0.314, -0.732, 5.737, -0.061, 26.245, -0.431, -0.570, 0.716, -2.502, 3.296, -3.113, 23.887, -0.573, 0.853, -0.104, -3.052, 16.052, 10.803, 22.135, 26.910, 20.630
16594, 1.006, -0.123, 0.322, 0.366, 7.935, -0.366, 26.218, -0.413, -0.576, 0.700, -3.052, 2.502, -3.906, 23.863, -0.560, 0.843, -0.075, -9.827, 24.048, 3.113, 22.129, 26.910, 20.650
16627, 0.978, -0.123, 0.334, 1.282, 9.399, -0.671, 26.233, -0.421, -0.578, 0.680, -4.456, 4.761, -4.578, 23.902, -0.579, 0.832, -0.064, -7.874, 17.212, 6.104, 22.120, 26.910, 20.650
16662, 0.971, -0.099, 0.340, 0.732, 9.155, -1.648, 26.254, -0.412, -0.579, 0.652, -2.747, 4.272, -4.089, 23.890, -0.537, 0.829, -0.084, -5.310, 18.005, 2.319, 22.114, 26.930, 20.650
16695, 0.945, -0.104, 0.342, 0.427, 9.583, -1.160, 26.230, -0.404, -0.577, 0.649, -2.686, 5.432, -4.639, 23.908, -0.519, 0.837, -0.053, -7.202, 26.245, -7.324, 22.123, 26.930, 20.650
16728, 0.944, -0.103, 0.351, -0.061, 6.836, -0.549, 26.227, -0.408, -0.589, 0.644, -2.502, 3.723, -4.578, 23.887, -0.516, 0.812, -0.080, 4.944, 10.986, 5.554, 22.141, 26.910, 20.650
16763, 0.943, -0.091, 0.360, -1.160, 6.409, -0.793, 26.236, -0.417, -0.598, 0.630, -2.380, 4.333, -3.845, 23.872, -0.509, 0.834, -0.091, 4.333, 5.554, 4.028, 22.111, 26.910, 20.650
16796, 0.930, -0.095, 0.371, -2.258, 4.700, -0.793, 26.242, -0.419, -0.598, 0.620, 0.000, 3.845, -2.930, 23.881, -0.483, 0.838, -0.091, 2.930, 7.080, 3.052, 22.153, 26.910, 20.630
16831, 0.922, -0.082, 0.374, -1.831, 1.953, -0.732, 26.224, -0.420, -0.594, 0.604, 1.587, 2.014, -2.014, 23.917, -0.468, 0.829, -0.090, 0.000, 5.920, -5.066, 22.117, 26.830, 20.630
16864, 0.923, -0.076, 0.358, -2.563, -0.122, 0.488, 26.227, -0.430, -0.591, 0.619, 3.906, 0.610, -1.221, 23.887, -0.492, 0.814, -0.045, 1.770, 2.991, -4.456, 22.126, 26.830, 20.630
16897, 0.944, -0.070, 0.353, -5.005, -1.404, 1.831, 26.215, -0.438, -0.589, 0.633, 5.554, -1.038, -1.160, 23.902, -0.500, 0.830, -0.054, 10.071, 2.625, -4.700, 22.126, 26.830, 20.630
16932, 0.962, -0.098, 0.346, -6.714, -2.441, 3.540, 26.245, -0.422, -0.579, 0.655, 7.507, -2.747, -3.723, 23.908, -0.519, 0.828, -0.064, 10.376, 0.610, -8.362, 22.126, 26.790, 20.630
16965, 0.964, -0.123, 0.339, -5.981, -2.747, 3.601, 26.242, -0.404, -0.575, 0.678, 6.714, -3.235, -2.380, 23.902, -0.554, 0.823, -0.080, 11.780, 2.258, -7.324, 22.117, 26.790, 20.630
16998, 0.997, -0.135, 0.340, -4.639, -3.052, 4.028, 26.236, -0.411, -0.576, 0.696, 6.042, -2.197, 0.671, 23.899, -0.570, 0.840, -0.086, 11.658, 4.822, -4.883, 22.120, 26.790, 20.630
17033, 0.997, -0.138, 0.338, -2.686, -1.892, 3.357, 26.227, -0.416, -0.585, 0.699, 3.723, -3.113, 0.244, 23.920, -0.573, 0.836, -0.076, 12.695, 3.662, -4.517, 22.132, 26.790, 20.630
17066, 0.996, -0.139, 0.329, -2.197, -0.427, 3.540, 26.257, -0.418, -0.580, 0.702, 2.380, -2.380, -0.244, 23.914, -0.574, 0.834, -0.081, 15.442, -1.770, 0.122, 22.159, 26.790, 20.630
17099, 1.003, -0.130, 0.333, -1.587, 1.465, 2.869, 26.242, -0.416, -0.583, 0.700, 0.732, -0.549, -1.709, 23.896, -0.579, 0.837, -0.079, 11.414, 2.808, -2.502, 22.141, 26.790, 20.630
17134, 0.988, -0.130, 0.329, -1.343, 2.991, 2.625, 26.239, -0.415, -0.577, 0.695, 0.549, -1.099, -2.625, 23.902, -0.571, 0.816, -0.074, 13.672, 3.845, -0.977, 22.132, 26.770, 20.630
17167, 0.984, -0.131, 0.334, -1.465, 4.150, 2.625, 26.233, -0.403, -0.582, 0.684, -1.221, -0.671, -2.502, 23.911, -0.568, 0.823, -0.077, 19.531, 7.385, -1.770, 22.135, 26.770, 20.630
17200, 0.970, -0.139, 0.330, -0.854, 4.883, 1.404, 26.197, -0.392, -0.574, 0.674, -1.038, -0.244, -2.502, 23.911, -0.546, 0.823, -0.137, 15.869, 6.042, 0.549, 22.126, 26.770, 20.630
17235, 0.952, -0.139, 0.350, -0.061, 5.310, 1.099, 26.236, -0.386, -0.587, 0.659, -3.174, 0.366, -1.038, 23.902, -0.535, 0.819, -0.123, 8.057, 5.127, 2.686, 22.126, 26.790, 20.630
17268, 0.943, -0.126, 0.354, 0.183, 3.052, 0.610, 26.233, -0.394, -0.598, 0.638, -0.305, 0.183, -0.183, 23.938, -0.535, 0.820, -0.122, 10.376, 5.371, 1.404, 22.135, 26.790, 20.650
17303, 0.947, -0.118, 0.348, -0.305, 4.822, -0.427, 26.218, -0.398, -0.591, 0.646, 0.610, 2.136, -1.282, 23.929, -0.531, 0.814, -0.116, 6.226, 4.639, 1.953, 22.141, 26.790, 20.650
17336, 0.943, -0.112, 0.354, -1.526, 3.296, -0.671, 26.248, -0.413, -0.592, 0.643, 1.831, 2.380, -1.648, 23.932, -0.519, 0.818, -0.101, 5.310, 2.991, -0.549, 22.132, 26.790, 20.650
17369, 0.955, -0.115, 0.349, -2.991, 1.953, 0.488, 26.218, -0.406, -0.587, 0.654, 2.258, 0.732, -3.357, 23.938, -0.537, 0.818, -0.093, 7.996, 3.845, -0.977, 22.150, 26.790, 20.670
17404, 0.958, -0.125, 0.342, -3.235, 0.854, 0.488, 26.248, -0.397, -0.589, 0.659, 3.174, 1.343, -1.648, 23.914, -0.545, 0.821, -0.108, 8.728, 2.930, -1.953, 22.147, 26.790, 20.670
17437, 0.965, -0.141, 0.339, -3.662, -0.305, 0.244, 26.242, -0.385, -0.586, 0.673, 4.761, 0.854, 0.244, 23.911, -0.559, 0.817, -0.103, 7.263, 3.357, -0.916, 22.117, 26.770, 20.670
17470, 0.962, -0.141, 0.345, -3.174, -0.305, -0.671, 26.257, -0.392, -0.589, 0.675, 1.160, 0.977, 2.136, 23.950, -0.559, 0.818, -0.102, 11.475, 3.113, -2.441, 22.129, 26.770, 20.650
17512, 0.969, -0.143, 0.333, -2.136, -1.831, -1.160, 26.236, -0.399, -0.574, 0.685, 5.249, 2.869, 4.700, 23.896, -0.557, 0.826, -0.116, 12.024, -1.526, -1.770, 22.150, 26.770, 20.650
17544, 0.989, -0.144, 0.328, -0.549, -1.892, -0.854, 26.239, -0.421, -0.568, 0.705, 2.869, 2.258, 3.906, 23.917, -0.572, 0.833, -0.101, 5.310, 3.296, -2.563, 22.141, 26.770, 20.650
17576, 1.000, -0.128, 0.332, 0.183, -1.282, -0.366, 26.251, -0.425, -0.580, 0.706, 1.099, 1.221, 1.892, 23.917, -0.565, 0.832, -0.087, 5.981, 3.235, -1.526, 22.138, 26.770, 20.650
17611, 0.987, -0.120, 0.330, -0.122, -0.366, 0.366, 26.254, -0.422, -0.586, 0.692, 2.258, 0.183, 2.380, 23.917, -0.559, 0.823, -0.069, 9.705, -0.549, -4.639, 22.150, 26.770, 20.650
17643, 0.992, -0.112, 0.327, -0.732, -0.061, 1.221, 26.266, -0.438, -0.577, 0.684, 0.244, 0.244, 2.686, 23.935, -0.561, 0.814, -0.064, 16.479, -4.700, -7.141, 22.129, 26.770, 20.650
17675, 0.990, -0.098, 0.336, -1.709, 0.488, 2.319, 26.236, -0.446, -0.580, 0.682, 0.000, -0.244, -0.671, 23.926, -0.557, 0.839, -0.109, 24.536, -7.690, -6.592, 22.162, 26.770, 20.650
17709, 0.979, -0.119, 0.335, -2.991, 2.197, 2.930, 26.242, -0.435, -0.576, 0.675, 1.526, 0.000, -4.272, 23.923, -0.538, 0.833, -0.166, 12.146, 4.089, 0.000, 22.144, 26.730, 20.650
17741, 0.980, -0.121, 0.335, -2.258, 3.601, 2.869, 26.227, -0.416, -0.570, 0.681, 1.831, -0.671, -8.057, 23.917, -0.542, 0.816, -0.090, 2.502, 2.319, -1.709, 22.141, 26.730, 20.650
17774, 0.965, -0.116, 0.340, -1.892, 3.967, 3.296, 26.221, -0.415, -0.594, 0.658, 0.122, 0.610, -4.028, 23.953, -0.555, 0.823, -0.113, 10.681, 5.737, -0.183, 22.111, 26.730, 20.630
17808, 0.973, -0.117, 0.342, -2.441, 4.395, 2.747, 26.245, -0.420, -0.581, 0.664, 0.427, 0.183, -4.639, 23.941, -0.537, 0.827, -0.122, 7.935, 5.737, 0.488, 22.120, 26.710, 20.630
17840, 0.967, -0.121, 0.334, -1.648, 4.822, 3.113, 26.230, -0.417, -0.580, 0.672, -0.732, 0.305, -5.859, 23.917, -0.549, 0.820, -0.095, 3.845, 6.714, -0.610, 22.132, 26.710, 20.630
17874, 0.964, -0.120, 0.347, -2.441, 5.127, 4.028, 26.236, -0.409, -0.593, 0.666, -0.549, -1.160, -5.066, 23.938, -0.561, 0.811, -0.075, 11.047, 7.263, -2.808, 22.141, 26.710, 20.670
17906, 0.960, -0.135, 0.341, -3.357, 4.272, 4.028, 26.230, -0.395, -0.584, 0.672, 1.160, -1.831, -4.517, 23.950, -0.559, 0.812, -0.127, 18.860, 6.897, -1.770, 22.126, 26.730, 20.670
17939, 0.955, -0.162, 0.352, -1.831, 2.502, 4.517, 26.242, -0.373, -0.585, 0.667, 0.000, -2.197, -2.136, 23.950, -0.545, 0.823, -0.156, 11.963, 2.991, -1.709, 22.153, 26.730, 20.650
17973, 0.935, -0.162, 0.358, 2.747, -2.869, 5.737, 26.263, -0.387, -0.591, 0.686, 1.038, -5.798, 6.653, 23.941, -0.507, 0.838, -0.164, 10.864, 1.465, -3.296, 22.141, 26.730, 20.650
18005, 0.965, -0.189, 0.365, 9.766, -3.357, 10.193, 26.221, -0.371, -0.559, 0.687, 2.808, -11.169, 14.954, 23.938, -0.529, 0.837, -0.210, 13.916, 9.399, -4.028, 22.141, 26.770, 20.650
18037, 0.945, -0.187, 0.348, 20.142, -5.005, 12.146, 26.266, -0.382, -0.580, 0.682, -6.409, -10.864, 20.874, 23.935, -0.544, 0.848, -0.203, -2.319, 10.132, -6.348, 22.144, 26.770, 20.710
18071, 0.959, -0.171, 0.346, 25.818, -8.118, 10.864, 26.263, -0.396, -0.555, 0.682, -2.380, -14.160, 26.184, 23.932, -0.531, 0.820, -0.218, -21.790, 17.029, -0.793, 22.153, 26.770, 20.710
18104, 0.955, -0.166, 0.333, 31.677, -8.118, 12.268, 26.239, -0.403, -0.561, 0.688, -4.822, -12.390, 24.414, 23.941, -0.556, 0.790, -0.104, -31.616, 25.208, 4.333, 22.141, 26.870, 20.710
18136, 0.954, -0.144, 0.342, 31.433, -10.071, 12.512, 26.254, -0.394, -0.583, 0.653, -7.385, -15.625, 26.611, 23.926, -0.548, 0.806, -0.116, -20.447, 25.635, 5.066, 22.141, 26.870, 20.630
18170, 0.921, -0.178, 0.339, 32.471, -10.864, 12.024, 26.230, -0.378, -0.570, 0.644, -2.441, -10.803, 27.344, 23.953, -0.529, 0.780, -0.159, -27.527, 28.625, 3.418, 22.153, 26.870, 20.630
18202, 0.890, -0.166, 0.331, 32.104, -12.756, 10.620, 26.245, -0.379, -0.560, 0.636, -4.395, -12.817, 27.527, 23.983, -0.549, 0.756, -0.099, -30.396, 25.940, 9.521, 22.126, 26.850, 20.630
18236, 0.905, -0.115, 0.329, 30.212, -21.179, 7.507, 26.239, -0.430, -0.579, 0.610, -3.113, -12.146, 32.532, 23.965, -0.501, 0.781, -0.061, -33.386, 17.273, 3.479, 22.150, 26.850, 20.650
18269, 0.915, -0.090, 0.307, 23.621, -21.545, 5.798, 26.248, -0.400, -0.562, 0.609, 2.625, -15.198, 20.020, 23.953, -0.471, 0.749, -0.027, -24.963, 6.226, -3.967, 22.138, 26.850, 20.650
18302, 0.903, -0.144, 0.318, 17.700, -18.738, 9.644, 26.245, -0.385, -0.533, 0.608, 8.545, -18.860, 18.921, 23.959, -0.490, 0.758, -0.086, -7.141, 11.902, -7.263, 22.138, 26.850, 20.650
18337, 0.859, -0.168, 0.313, 18.555, -22.644, 10.071, 26.251, -0.373, -0.482, 0.645, 12.268, -13.306, 27.771, 23.950, -0.516, 0.756, -0.092, -8.118, 3.906, -9.399, 22.132, 26.850, 20.670
18370, 0.877, -0.092, 0.295, 16.663, -29.053, 4.883, 26.251, -0.506, -0.531, 0.566, 31.250, -8.606, -35.461, 23.950, -0.437, 0.764, -0.042, -18.555, -10.376, -14.954, 22.156, 26.850, 20.670
18403, 0.907, -0.045, 0.283, 12.451, -34.485, 5.920, 26.251, -0.202, -0.552, 0.672, 18.433, -8.484, 44.861, 23.947, -0.405, 0.766, 0.075, -19.897, -19.409, -34.485, 22.159, 26.990, 20.670
18438, 0.936, -0.104, 0.248, -1.648, -37.354, 14.709, 26.245, -0.452, -0.562, 0.678, -5.188, -30.640, 91.736, 23.932, -0.620, 0.730, 0.045, 11.963, -9.399, -59.875, 22.165, 26.990, 20.650
18471, 0.957, -0.198, 0.194, -5.554, -36.804, 12.451, 26.245, -0.325, -0.294, 0.691, -25.391, -41.565, 136.353, 23.953, -0.657, 0.701, -0.020, 17.761, -21.912, -46.936, 22.141, 26.990, 20.650
18506, 0.948, -0.274, 0.214, 0.427, -31.128, 8.301, 26.248, -0.225, -0.430, 0.668, -43.518, -38.086, 184.448, 23.977, -0.647, 0.742, -0.103, 31.311, -14.404, -37.781, 22.153, 26.770, 20.650
18539, 0.896, -0.352, 0.202, 9.216, -26.917, 0.305, 26.233, -0.461, -0.376, 0.761, -48.584, -36.743, 193.298, 23.962, -0.751, 0.695, -0.121, 12.451, -14.832, -35.034, 22.153, 26.770, 20.670
18572, 0.939, -0.316, 0.163, 20.447, -44.556, -10.315, 26.230, -0.398, -0.426, 0.793, -97.046, -25.513, 250.305, 23.965, -0.738, 0.691, -0.079, -1.343, -46.204, -13.916, 22.132, 26.770, 20.670
18607, 1.030, -0.295, 0.032, 43.274, -51.147, -27.161, 26.233, -0.648, -0.332, 0.838, -130.920, -35.767, 168.335, 23.959, -0.730, 0.750, 0.056, -15.076, -59.143, -8.728, 22.135, 26.730, 20.670
18640, 1.202, -0.116, -0.026, 51.392, -68.237, -17.273, 26.242, -0.830, -0.485, 0.761, -85.876, -9.583, 122.620, 23.989, -0.809, 0.733, 0.207, -55.969, -41.443, -32.104, 22.123, 26.730, 20.650
18673, 1.316, -0.049, -0.044, 20.142, -35.034, 1.160, 26.257, -0.890, -0.414, 0.894, 0.732, -31.067, 60.364, 23.986, -0.854, 0.741, 0.392, -40.894, -53.467, -28.748, 22.129, 26.730, 20.650
18708, 1.310, -0.125, -0.081, -2.686, -8.667, 5.371, 26.260, -0.661, -0.363, 0.875, 7.446, -12.451, 22.156, 23.956, -0.869, 0.715, 0.389, 7.996, -23.010, -15.625, 22.117, 25.790, 20.650
18741, 1.212, -0.237, -0.045, -6.470, 6.409, 4.883, 26.224, -0.665, -0.356, 0.963, -1.587, -6.287, 31.921, 23.950, -0.907, 0.680, 0.343, 55.420, -24.292, -1.343, 22.111, 25.790, 20.630
18774, 1.141, -0.263, -0.007, -1.160, 1.526, 4.639, 26.248, -0.619, -0.409, 0.840, -18.250, -5.920, 12.634, 23.968, -0.862, 0.728, 0.201, 83.008, -52.734, 6.042, 22.132, 25.790, 20.630
18809, 1.154, -0.130, 0.021, 1.709, 12.451, -5.066, 26.245, -0.725, -0.429, 0.762, 14.893, -1.892, -40.955, 23.953, -0.721, 0.814, 0.140, 79.834, -54.016, 8.301, 22.111, 25.630, 20.630
18842, 1.131, -0.124, 0.027, -11.230, 39.063, -8.667, 26.245, -0.700, -0.394, 0.728, 61.646, 4.639, -116.455, 23.944, -0.655, 0.814, 0.026, 39.246, 9.094, 14.221, 22.093, 25.630, 20.630
18877, 1.016, -0.169, 0.053, -9.155, 43.152, -2.991, 26.245, -0.472, -0.270, 0.785, 67.444, 26.306, -156.616, 23.953, -0.623, 0.776, 0.089, 14.465, 46.997, 23.254, 22.120, 25.630, 20.630
18909, 0.985, -0.133, 0.077, 5.310, 30.457, -4.578, 26.251, -0.451, -0.286, 0.793, 15.625, 27.588, -106.628, 23.965, -0.635, 0.772, 0.034, 2.136, 59.875, 25.024, 22.108, 25.730, 20.630
18942, 0.992, -0.084, 0.125, 7.874, 28.015, -2.319, 26.245, -0.563, -0.392, 0.677, -14.648, 22.217, -69.641, 23.962, -0.625, 0.730, 0.053, -16.479, 70.374, 35.217, 22.102, 25.730, 20.650
18977, 0.967, -0.085, 0.160, 5.920, 29.053, -1.465, 26.239, -0.524, -0.386, 0.638, 7.080, 32.288, -62.927, 23.971, -0.548, 0.733, 0.055, 3.418, 76.660, 45.410, 22.111, 25.730, 20.650
19010, 0.934, -0.095, 0.176, 5.981, 26.245, 0.122, 26.236, -0.490, -0.425, 0.657, -4.395, 27.283, -41.077, 23.998, -0.521, 0.737, 0.055, 0.366, 67.993, 35.950, 22.153, 25.910, 20.650
19043, 0.947, -0.103, 0.202, 5.615, 19.836, 0.977, 26.242, -0.518, -0.453, 0.629, -18.250, 16.968, -21.301, 23.980, -0.544, 0.771, 0.029, -2.380, 44.922, 23.010, 22.102, 25.910, 20.650
19078, 0.935, -0.113, 0.210, 4.028, 16.785, 1.709, 26.269, -0.503, -0.506, 0.669, -21.240, 1.099, -11.169, 23.956, -0.552, 0.796, -0.067, 12.024, 43.396, 19.348, 22.126, 26.150, 20.650
19111, 0.953, -0.144, 0.206, 6.592, 12.390, 1.831, 26.248, -0.496, -0.490, 0.607, -23.621, 5.310, -7.507, 23.986, -0.552, 0.788, -0.095, -19.592, 52.063, 12.451, 22.120, 26.150, 20.650
19144, 0.979, -0.146, 0.197, 9.399, 9.033, 1.770, 26.260, -0.557, -0.555, 0.644, -3.662, 4.822, -21.973, 23.971, -0.598, 0.783, 0.001, -34.180, 41.626, 12.634, 22.117, 26.150, 20.650
19179, 1.024, -0.112, 0.207, 7.751, 6.714, 2.136, 26.230, -0.501, -0.492, 0.636, 14.343, 10.315, -35.400, 23.974, -0.565, 0.793, 0.037, -18.799, 34.607, 14.160, 22.102, 26.350, 20.650
19212, 1.009, -0.122, 0.192, 4.272, 13.367, 3.540, 26.248, -0.471, -0.480, 0.692, 7.690, 11.169, -18.616, 23.989, -0.591, 0.773, 0.064, -14.221, 31.616, 3.296, 22.117, 26.350, 20.650
19247, 1.013, -0.154, 0.213, 2.197, 8.789, 6.287, 26.242, -0.480, -0.552, 0.681, -4.456, 7.385, 0.061, 23.965, -0.619, 0.812, -0.007, 3.113, 31.616, 3.235, 22.108, 26.350, 20.650
19280, 1.003, -0.181, 0.214, 2.380, 10.132, 4.700, 26.245, -0.504, -0.550, 0.673, 3.174, 0.671, -17.761, 23.974, -0.614, 0.791, -0.032, -1.343, 20.447, 5.981, 22.150, 26.270, 20.650
19313, 1.010, -0.207, 0.224, 0.366, 9.583, 3.235, 26.242, -0.422, -0.618, 0.668, 17.395, 2.625, -24.414, 23.974, -0.650, 0.807, -0.033, -3.723, 20.874, -6.592, 22.141, 26.270, 20.650
19348, 1.020, -0.245, 0.225, 2.869, 11.475, 0.366, 26.245, -0.408, -0.557, 0.709, 23.621, 16.174, -27.954, 23.986, -0.686, 0.833, -0.040, 6.470, 14.099, 2.686, 22.132, 26.270, 20.650
19381, 1.033, -0.205, 0.247, 8.301, 7.263, -3.906, 26.245, -0.471, -0.581, 0.672, 15.503, 21.851, -30.701, 24.004, -0.579, 0.853, -0.124, 4.089, 21.240, 12.695, 22.132, 26.290, 20.650
19414, 1.003, -0.153, 0.223, 8.484, 14.954, -4.761, 26.218, -0.477, -0.485, 0.725, 26.978, 29.846, -19.592, 23.995, -0.576, 0.810, -0.012, -26.550, 25.085, -3.357, 22.111, 26.290, 20.650
19449, 1.022, -0.154, 0.249, 9.094, 9.888, -2.563, 26.260, -0.512, -0.531, 0.706, -1.282, 14.954, -7.568, 24.007, -0.604, 0.828, -0.003, -10.376, 27.222, 6.165, 22.117, 26.290, 20.650
19482, 1.015, -0.131, 0.238, 9.338, 15.808, -3.235, 26.248, -0.475, -0.532, 0.674, -7.324, 19.104, -0.183, 23.965, -0.571, 0.796, 0.001, -17.395, 23.376, 3.845, 22.144, 26.270, 20.650
19515, 1.001, -0.149, 0.265, 9.399, 16.968, -1.953, 26.251, -0.530, -0.521, 0.642, -5.432, 23.071, -2.014, 23.965, -0.593, 0.797, 0.000, -2.258, 27.527, 13.184, 22.135, 26.270, 20.630
19550, 0.977, -0.135, 0.267, 8.362, 17.273, -1.770, 26.254, -0.476, -0.525, 0.640, -3.296, 11.169, 5.127, 23.998, -0.558, 0.808, -0.019, -6.897, 25.696, 12.512, 22.126, 26.270, 20.630
19583, 0.964, -0.143, 0.296, 10.925, 16.785, -2.014, 26.245, -0.572, -0.611, 0.595, 0.488, 16.052, -6.714, 23.977, -0.533, 0.817, -0.021, -4.395, 22.034, 15.320, 22.129, 26.230, 20.630
19618, 0.958, -0.071, 0.300, 8.545, 15.137, -0.305, 26.224, -0.502, -0.502, 0.590, 9.094, 16.418, -28.442, 23.986, -0.487, 0.794, -0.006, -2.625, 22.949, 5.737, 22.132, 26.230, 20.650
19651, 0.945, -0.097, 0.302, 5.432, 18.127, 3.174, 26.236, -0.432, -0.536, 0.573, -0.183, 32.104, -6.104, 24.007, -0.504, 0.803, 0.026, 9.399, 18.433, 5.371, 22.120, 26.230, 20.650
19684, 0.943, -0.109, 0.314, 4.395, 13.794, 6.226, 26.233, -0.612, -0.505, 0.618, 3.235, 21.484, 4.272, 23.977, -0.491, 0.806, -0.030, 17.761, 18.311, 3.784, 22.162, 26.290, 20.650
19719, 0.952, -0.126, 0.311, 4.822, 10.742, 8.972, 26.254, -0.480, -0.512, 0.632, -42.969, -6.165, 12.512, 24.013, -0.511, 0.812, -0.051, 18.616, 17.395, 0.671, 22.141, 26.290, 20.650
19752, 0.952, -0.177, 0.326, 6.775, 7.629, 12.329, 26.257, -0.536, -0.530, 0.687, -48.279, -10.742, 32.410, 23.995, -0.557, 0.839, -0.108, 21.484, 22.522, -0.366, 22.138, 26.290, 20.650
19785, 0.973, -0.191, 0.322, 10.437, 4.822, 9.705, 26.242, -0.461, -0.546, 0.597, -42.908, -33.508, 29.358, 23.998, -0.583, 0.840, -0.107, 5.310, 19.348, 1.221, 22.135, 26.230, 20.650
19821, 0.983, -0.188, 0.332, 11.230, 6.287, 7.874, 26.242, -0.499, -0.590, 0.580, -29.846, -8.057, 42.542, 24.016, -0.589, 0.851, -0.081, 9.888, 18.250, 4.333, 22.141, 26.230, 20.630
19854, 0.976, -0.175, 0.313, 13.367, 2.625, 4.150, 26.224, -0.555, -0.571, 0.683, -17.273, -2.136, 52.795, 23.986, -0.555, 0.870, -0.093, 1.160, 6.714, 7.812, 22.144, 26.230, 20.630
19887, 1.075, -0.198, 0.321, 14.954, 0.122, 3.601, 26.227, -0.551, -0.529, 0.639, -38.391, -17.517, 62.073, 24.001, -0.633, 0.847, -0.030, -2.441, 19.592, 0.244, 22.147, 26.230, 20.630
19922, 1.036, -0.111, 0.301, 14.832, 15.137, -3.235, 26.260, -0.595, -0.379, 0.626, -43.518, -5.005, 94.971, 24.004, -0.542, 0.852, 0.006, 4.517, 8.362, 9.460, 22.141, 26.230, 20.650
19955, 1.003, -0.137, 0.330, 13.550, 16.174, -1.648, 26.254, -0.710, -0.474, 0.687, -85.205, -18.433, 142.578, 24.019, -0.539, 0.832, -0.063, 12.634, 15.869, 2.991, 22.147, 26.230, 20.650
19988, 0.970, -0.176, 0.338, 18.982, 18.372, 0.732, 26.233, -0.623, -0.397, 0.600, -156.128, 0.244, 144.775, 24.007, -0.561, 0.854, -0.082, 14.160, 17.395, 5.371, 22.123, 26.270, 20.650
20023, 0.932, -0.160, 0.367, 30.579, 12.329, -2.808, 26.269, -0.827, -0.545, 0.308, -124.817, 12.756, 142.151, 23.992, -0.494, 0.841, -0.118, 10.376, 7.446, 11.841, 22.144, 26.270, 20.650
20056, 0.892, -0.067, 0.407, 20.813, 10.254, -3.296, 26.251, -0.799, -0.499, 0.364, -45.654, -4.883, 101.440, 23.998, -0.475, 0.825, -0.119, 7.019, 10.681, 7.751, 22.126, 26.350, 20.650
20091, 0.885, -0.077, 0.403, 8.667, 7.568, -0.671, 26.257, -0.839, -0.455, 0.372, -57.678, -15.076, 46.997, 23.989, -0.448, 0.811, -0.127, 5.371, 10.864, 7.141, 22.144, 26.350, 20.650
20124, 0.898, -0.056, 0.417, 3.906, -0.732, 2.625, 26.257, -0.893, -0.469, 0.366, -44.006, -30.396, 3.845, 24.007, -0.428, 0.817, -0.108, 9.644, 10.193, 6.165, 22.129, 26.350, 20.630
20157, 0.872, -0.057, 0.405, -3.235, -3.052, 6.775, 26.263, -0.717, -0.487, 0.309, -13.428, -36.194, -54.382, 24.031, -0.424, 0.810, -0.108, 14.038, 7.874, 4.517, 22.162, 26.310, 20.630
20192, 0.858, -0.100, 0.403, -4.761, 0.305, 5.310, 26.251, -0.578, -0.500, 0.271, -2.930, -4.089, -65.125, 23.992, -0.419, 0.823, -0.144, 14.526, 6.042, 2.686, 22.123, 26.310, 20.630
20225, 0.858, -0.081, 0.410, -2.747, -0.122, 0.488, 26.266, -0.650, -0.493, 0.351, 12.573, -3.052, -55.054, 24.010, -0.406, 0.827, -0.140, 5.188, 0.732, -2.869, 22.144, 26.310, 20.650
20258, 0.877, -0.080, 0.399, -3.418, -2.991, 0.977, 26.242, -0.678, -0.507, 0.370, 7.507, -1.892, -43.213, 23.977, -0.412, 0.821, -0.120, 3.052, -0.183, -5.249, 22.141, 26.370, 20.650
20293, 0.897, -0.063, 0.388, -5.676, -6.165, 3.479, 26.257, -0.699, -0.532, 0.382, 9.460, 0.488, -50.232, 24.034, -0.441, 0.836, -0.094, 1.648, -1.160, -8.301, 22.153, 26.370, 20.610
20326, 0.962, -0.099, 0.378, -10.315, -0.183, 2.380, 26.248, -0.654, -0.563, 0.442, 18.372, 1.587, -51.025, 24.016, -0.494, 0.816, -0.072, 12.085, 0.305, -8.606, 22.165, 26.370, 20.610
20359, 0.949, -0.132, 0.381, -13.977, 1.648, 1.648, 26.260, -0.697, -0.690, 0.439, 22.888, -0.305, -66.650, 24.025, -0.523, 0.855, -0.121, 16.113, -0.183, -5.859, 22.147, 26.290, 20.610
20394, 0.991, -0.136, 0.368, -18.433, 1.587, 0.366, 26.251, -0.677, -0.655, 0.414, 73.059, 17.395, -127.319, 24.034, -0.586, 0.846, -0.096, 15.869, 3.784, -9.583, 22.174, 26.290, 20.670
20427, 1.018, -0.169, 0.352, -23.560, 7.507, -2.441, 26.245, -0.554, -0.634, 0.518, 95.520, 38.696, -150.452, 24.004, -0.604, 0.852, -0.101, 20.447, 3.418, 1.526, 22.147, 26.290, 20.670
20462, 1.018, -0.191, 0.353, -23.987, 10.376, -6.470, 26.266, -0.488, -0.608, 0.645, 91.492, 42.236, -133.301, 23.995, -0.598, 0.874, -0.127, 21.118, 3.784, 8.850, 22.150, 26.290, 20.670
20494, 1.008, -0.199, 0.353, -21.240, 11.414, -7.263, 26.260, -0.426, -0.602, 0.661, 54.016, 25.635, -95.093, 24.028, -0.582, 0.885, -0.129, 16.846, 4.883, 9.827, 22.162, 26.290, 20.670
20526, 1.009, -0.190, 0.353, -15.076, 7.874, -8.728, 26.263, -0.417, -0.618, 0.624, 24.414, 12.451, -54.321, 24.022, -0.565, 0.880, -0.127, 9.949, 6.653, 10.437, 22.159, 26.290, 20.670
20560, 0.998, -0.162, 0.359, -11.597, 8.118, -9.766, 26.275, -0.439, -0.682, 0.602, 13.977, 16.602, -37.231, 24.028, -0.520, 0.879, -0.115, 8.606, 2.563, 11.047, 22.165, 26.270, 20.670
20592, 0.990, -0.137, 0.367, -10.986, 7.874, -8.728, 26.254, -0.450, -0.706, 0.574, 18.494, 21.057, -34.363, 24.007, -0.501, 0.874, -0.128, 9.033, 2.258, 10.132, 22.129, 26.270, 20.670
20624, 0.968, -0.137, 0.377, -11.414, 9.460, -6.897, 26.251, -0.427, -0.675, 0.554, 24.414, 26.978, -32.593, 24.031, -0.471, 0.868, -0.154, 8.057, 3.357, 10.742, 22.150, 26.270, 20.670
20658, 0.930, -0.154, 0.385, -10.986, 9.460, -5.249, 26.257, -0.410, -0.646, 0.556, 32.227, 30.579, -34.241, 24.013, -0.472, 0.860, -0.136, 1.526, -1.770, 5.859, 22.150, 26.230, 20.670
20690, 0.917, -0.154, 0.387, -6.714, 4.883, -4.456, 26.272, -0.404, -0.648, 0.594, 32.532, 23.743, -22.217, 24.025, -0.465, 0.860, -0.150, -5.188, 5.737, -1.099, 22.129, 26.230, 20.630
20722, 0.913, -0.166, 0.400, -2.563, 1.892, -1.160, 26.272, -0.394, -0.624, 0.571, 16.113, 15.381, -13.916, 24.025, -0.454, 0.842, -0.181, -3.052, 8.545, -2.197, 22.135, 26.230, 20.630
20756, 0.888, -0.148, 0.400, 1.526, -2.136, 0.610, 26.272, -0.372, -0.640, 0.546, 11.536, 11.536, -10.620, 24.040, -0.448, 0.828, -0.162, -9.827, 9.033, -7.202, 22.141, 26.230, 20.630
20788, 0.891, -0.147, 0.403, 2.441, -6.714, 1.648, 26.263, -0.405, -0.652, 0.548, 14.587, 11.047, -3.723, 24.034, -0.453, 0.828, -0.146, -7.874, 7.141, -4.333, 22.141, 26.230, 20.630
20822, 0.907, -0.132, 0.384, 2.625, -7.996, 2.319, 26.266, -0.398, -0.642, 0.585, 16.235, 1.404, 3.235, 24.019, -0.467, 0.827, -0.117, -7.507, 4.395, -6.592, 22.159, 26.230, 20.630
20854, 0.935, -0.155, 0.375, 3.540, -9.949, 4.883, 26.266, -0.397, -0.634, 0.595, 9.521, -5.371, 4.456, 24.025, -0.483, 0.858, -0.133, -5.859, 11.719, -11.353, 22.150, 26.230, 20.630
20886, 0.948, -0.204, 0.373, 8.484, -10.559, 6.836, 26.283, -0.371, -0.636, 0.629, 7.935, -6.226, 11.841, 24.004, -0.511, 0.868, -0.182, -8.362, 16.541, -8.789, 22.153, 26.230, 20.670
20920, 0.976, -0.228, 0.351, 17.822, -10.071, 5.493, 26.236, -0.384, -0.602, 0.675, 8.972, -7.263, 20.325, 24.016, -0.546, 0.855, -0.145, -21.362, 18.494, -3.296, 22.150, 26.230, 20.670
20952, 1.007, -0.191, 0.356, 23.132, -9.766, 4.333, 26.263, -0.436, -0.639, 0.671, -6.165, -12.817, 25.024, 23.992, -0.574, 0.872, -0.082, -21.484, 17.700, 5.127, 22.144, 26.230, 20.670
20984, 0.989, -0.140, 0.343, 24.963, -6.714, 2.686, 26.272, -0.487, -0.625, 0.640, -3.601, -9.888, 26.794, 24.031, -0.515, 0.863, -0.049, -26.123, 21.484, 2.808, 22.159, 26.230, 20.650
21018, 1.028, -0.043, 0.333, 20.081, -6.531, 2.563, 26.263, -0.528, -0.656, 0.600, -5.493, -11.108, 16.846, 24.016, -0.513, 0.839, 0.059, -22.156, 14.282, -0.244, 22.138, 26.230, 20.650
21050, 1.017, -0.049, 0.334, 9.033, -0.977, 6.592, 26.266, -0.505, -0.667, 0.581, -0.916, -8.179, 4.822, 24.037, -0.498, 0.854, 0.047, 4.395, 15.442, -1.404, 22.162, 26.210, 20.650
21082, 0.978, -0.104, 0.333, 1.892, 1.709, 7.385, 26.263, -0.464, -0.617, 0.617, 3.967, -4.517, -1.526, 24.007, -0.523, 0.865, -0.024, 10.010, 9.521, -4.761, 22.156, 26.210, 20.650
21116, 0.988, -0.157, 0.336, -0.488, 1.465, 5.371, 26.242, -0.436, -0.621, 0.633, 0.916, -2.808, -5.249, 24.055, -0.557, 0.870, -0.047, 5.981, 6.653, -1.953, 22.132, 26.210, 20.650
21148, 1.013, -0.120, 0.333, -2.563, 1.343, 0.366, 26.263, -0.463, -0.640, 0.634, 2.075, 1.953, -1.526, 24.022, -0.548, 0.872, 0.000, 2.869, -0.793, -1.831, 22.147, 26.170, 20.650
21182, 1.005, -0.082, 0.325, -5.127, 3.357, -0.854, 26.248, -0.516, -0.602, 0.622, 1.709, 7.019, -1.038, 24.022, -0.502, 0.880, 0.011, 10.132, -0.305, -0.366, 22.147, 26.170, 20.670
21214, 0.991, -0.053, 0.341, -8.423, 5.432, -0.610, 26.263, -0.522, -0.620, 0.577, -0.549, 5.676, -9.338, 24.037, -0.466, 0.866, 0.023, 13.489, 0.000, -0.610, 22.153, 26.170, 20.670
21246, 0.961, -0.058, 0.359, -12.573, 7.507, 0.610, 26.245, -0.495, -0.645, 0.545, 2.747, 9.766, -16.907, 24.031, -0.450, 0.870, -0.014, 19.531, -1.892, -1.526, 22.141, 26.170, 20.670
21280, 0.937, -0.067, 0.357, -15.869, 9.766, -0.854, 26.263, -0.468, -0.614, 0.545, 8.667, 11.353, -19.653, 24.025, -0.451, 0.845, -0.022, 20.569, -4.700, -1.404, 22.156, 26.170, 20.650
21312, 0.920, -0.074, 0.370, -18.188, 10.925, -0.610, 26.257, -0.456, -0.635, 0.530, 0.916, 11.475, -20.203, 24.028, -0.438, 0.843, -0.047, 26.245, -3.967, -0.427, 22.141, 26.170, 20.650
21345, 0.908, -0.099, 0.364, -21.667, 10.620, -2.136, 26.254, -0.429, -0.639, 0.518, 9.644, 11.841, -23.987, 24.016, -0.484, 0.816, -0.060, 25.024, -5.188, -3.418, 22.147, 26.150, 20.650
21379, 0.930, -0.114, 0.375, -26.672, 15.747, -6.104, 26.248, -0.432, -0.629, 0.547, 16.724, 23.926, -37.903, 24.007, -0.501, 0.829, -0.056, 29.602, -5.920, 1.465, 22.156, 26.150, 20.670
21411, 0.901, -0.165, 0.400, -30.029, 15.747, -7.874, 26.269, -0.364, -0.649, 0.531, 11.047, 18.921, -42.480, 24.031, -0.496, 0.832, -0.146, 33.386, -6.165, 0.977, 22.144, 26.150, 20.670
21443, 0.885, -0.201, 0.406, -31.555, 15.137, -11.841, 26.242, -0.324, -0.667, 0.568, 16.235, 24.719, -39.551, 24.010, -0.525, 0.833, -0.194, 25.940, -11.047, 2.686, 22.153, 26.150, 20.670
21477, 0.914, -0.254, 0.412, -30.273, 8.911, -16.541, 26.254, -0.290, -0.657, 0.603, 16.113, 30.090, -28.320, 24.055, -0.579, 0.852, -0.209, 22.705, -9.888, 4.761, 22.144, 26.150, 20.650
21510, 0.929, -0.252, 0.397, -24.048, 5.066, -24.475, 26.254, -0.312, -0.665, 0.631, 13.977, 30.396, -12.268, 24.055, -0.558, 0.861, -0.203, 9.644, -18.616, 9.094, 22.135, 26.150, 20.650
21544, 0.961, -0.214, 0.377, -18.005, 0.977, -28.381, 26.272, -0.368, -0.651, 0.652, 14.160, 29.419, -2.869, 24.019, -0.552, 0.867, -0.145, 1.038, -19.958, 9.888, 22.156, 26.110, 20.650
21576, 0.988, -0.158, 0.360, -14.587, -1.343, -28.198, 26.260, -0.423, -0.649, 0.653, 11.353, 32.288, -0.183, 24.010, -0.530, 0.876, -0.099, -4.028, -18.250, 10.071, 22.141, 26.110, 20.650
21608, 0.989, -0.125, 0.362, -12.817, -1.526, -26.978, 26.257, -0.461, -0.633, 0.641, 11.719, 28.870, 0.366, 24.019, -0.499, 0.859, -0.056, -4.089, -18.860, 9.583, 22.150, 26.110, 20.650
21642, 1.000, -0.099, 0.355, -11.414, -2.319, -21.484, 26.263, -0.491, -0.628, 0.655, 10.071, 23.010, 1.709, 24.037, -0.485, 0.862, -0.034, -0.244, -14.648, 7.568, 22.147, 25.990, 20.650
21675, 1.005, -0.089, 0.359, -9.888, -2.563, -14.221, 26.254, -0.492, -0.651, 0.647, 7.324, 14.282, 2.380, 24.046, -0.463, 0.888, -0.045, 3.296, -10.315, 4.089, 22.156, 25.990, 20.650
21707, 1.002, -0.091, 0.337, -5.676, -2.319, -8.240, 26.242, -0.518, -0.614, 0.671, 12.207, 10.803, 1.465, 24.055, -0.473, 0.880, -0.019, 0.244, -3.540, -2.258, 22.159, 25.990, 20.650
21741, 1.038, -0.072, 0.346, -2.869, -2.686, 0.549, 26.239, -0.515, -0.631, 0.661, 2.258, 0.671, -2.625, 24.031, -0.510, 0.872, 0.013, 5.432, 4.700, -4.211, 22.150, 25.990, 20.650
21773, 1.007, -0.082, 0.346, -3.967, 2.319, 5.249, 26.266, -0.486, -0.647, 0.637, 2.319, -3.967, -7.019, 24.034, -0.489, 0.860, -0.030, 11.902, 7.812, -5.371, 22.156, 25.990, 20.710
21805, 0.991, -0.111, 0.359, -5.432, 3.906, 8.606, 26.251, -0.451, -0.646, 0.625, 2.380, -6.104, -9.033, 24.058, -0.511, 0.853, -0.053, 14.709, 8.301, -5.981, 22.159, 25.990, 20.710
21840, 0.954, -0.132, 0.377, -5.005, 4.822, 10.681, 26.230, -0.417, -0.647, 0.608, 0.610, -6.531, -10.681, 24.010, -0.497, 0.854, -0.098, 18.005, 10.864, -6.653, 22.147, 25.970, 20.710
21872, 0.927, -0.144, 0.388, -4.211, 4.333, 10.376, 26.269, -0.381, -0.647, 0.579, 1.465, -5.676, -8.911, 24.043, -0.500, 0.842, -0.126, 16.296, 9.766, -7.080, 22.153, 25.970, 20.630
21906, 0.905, -0.142, 0.384, -2.808, 2.441, 8.057, 26.257, -0.363, -0.636, 0.562, 1.038, -4.456, -5.981, 24.034, -0.487, 0.833, -0.120, 11.414, 6.348, -5.066, 22.147, 25.970, 20.630
21939, 0.891, -0.130, 0.393, -2.014, 1.038, 5.737, 26.239, -0.371, -0.653, 0.543, 1.282, -4.517, -2.991, 24.025, -0.469, 0.830, -0.119, 8.179, 5.127, -5.493, 22.153, 25.930, 20.630
21972, 0.901, -0.100, 0.384, -3.235, -1.282, 3.967, 26.272, -0.407, -0.643, 0.540, 6.653, -1.526, -1.648, 24.052, -0.464, 0.828, -0.072, 5.676, 1.160, -6.165, 22.144, 25.930, 20.650
22007, 0.916, -0.086, 0.383, -6.592, -2.319, 4.028, 26.266, -0.416, -0.654, 0.542, 6.409, -1.709, -4.395, 24.043, -0.478, 0.833, -0.071, 10.620, 1.160, -7.629, 22.165, 25.930, 20.650
22040, 0.919, -0.098, 0.373, -10.559, -3.357, 2.197, 26.269, -0.410, -0.646, 0.554, 13.062, 2.380, -7.507, 24.046, -0.490, 0.830, -0.068, 9.399, -4.578, -9.399, 22.159, 25.990, 20.650
22073, 0.940, -0.119, 0.367, -13.245, -3.845, 0.488, 26.266, -0.395, -0.631, 0.584, 14.099, 4.944, -8.362, 24.019, -0.518, 0.829, -0.073, 11.841, -5.981, -8.484, 22.174, 25.990, 20.650
22108, 0.940, -0.130, 0.358, -14.160, -4.517, -2.014, 26.272, -0.395, -0.624, 0.594, 13.184, 5.310, -5.554, 24.055, -0.515, 0.834, -0.083, 10.071, -8.545, -7.751, 22.141, 25.990, 20.650
22141, 0.949, -0.140, 0.339, -13.184, -4.639, -4.639, 26.269, -0.403, -0.600, 0.626, 15.747, 8.179, -5.676, 24.031, -0.536, 0.837, -0.066, 9.399, -7.629, -5.371, 22.171, 25.930, 20.650
22174, 0.976, -0.150, 0.335, -12.268, -4.883, -5.859, 26.272, -0.404, -0.620, 0.648, 10.010, 8.118, -2.808, 24.061, -0.558, 0.854, -0.073, 9.277, -7.568, -4.272, 22.138, 25.930, 20.630
22209, 1.003, -0.144, 0.304, -9.583, -5.493, -8.240, 26.239, -0.438, -0.601, 0.675, 13.794, 10.193, -0.305, 24.058, -0.565, 0.849, -0.023, 1.343, -9.827, -3.479, 22.129, 25.930, 20.630
22242, 1.039, -0.097, 0.297, -9.094, -5.188, -7.202, 26.283, -0.490, -0.613, 0.688, 9.399, 10.193, 0.549, 24.055, -0.575, 0.863, 0.023, 2.625, -8.606, -3.967, 22.144, 25.910, 20.630
22273, 1.076, -0.077, 0.279, -11.353, -4.578, -5.493, 26.248, -0.527, -0.609, 0.701, 9.827, 9.033, -4.272, 24.049, -0.590, 0.864, 0.064, 7.751, -7.141, -5.798, 22.171, 25.910, 20.650
22306, 1.063, -0.079, 0.281, -13.550, -1.282, -1.709, 26.269, -0.503, -0.617, 0.694, 8.301, 9.338, -11.230, 24.052, -0.585, 0.866, 0.037, 15.869, -4.578, -4.944, 22.174, 25.910, 20.650
22339, 1.053, -0.102, 0.290, -16.418, 5.005, -2.502, 26.269, -0.475, -0.596, 0.698, 10.498, 9.155, -15.320, 24.052, -0.595, 0.851, 0.013, 18.738, -5.920, -2.869, 22.153, 25.870, 20.650
22374, 1.015, -0.141, 0.305, -15.259, 7.629, -2.075, 26.283, -0.439, -0.604, 0.684, 3.845, 9.827, -15.320, 24.037, -0.577, 0.865, -0.062, 21.545, -2.136, -0.366, 22.165, 25.870, 20.650
22407, 0.994, -0.146, 0.308, -13.184, 6.897, -3.052, 26.257, -0.420, -0.595, 0.659, 6.836, 10.254, -10.376, 24.061, -0.578, 0.843, -0.037, 14.160, -2.380, 0.305, 22.162, 25.870, 20.650
22440, 1.004, -0.133, 0.317, -10.559, 7.568, -4.150, 26.263, -0.438, -0.595, 0.666, 2.625, 10.986, -9.949, 24.049, -0.561, 0.838, -0.040, 15.381, 0.183, 3.723, 22.156, 25.870, 20.650
22475, 1.005, -0.128, 0.311, -9.949, 8.728, -3.113, 26.257, -0.442, -0.616, 0.661, 0.366, 8.728, -9.338, 24.067, -0.565, 0.835, -0.029, 14.893, 0.977, 1.526, 22.156, 25.870, 20.670
22508, 0.992, -0.124, 0.321, -10.437, 10.315, -2.991, 26.272, -0.421, -0.614, 0.641, 0.000, 10.864, -10.925, 24.052, -0.560, 0.826, -0.035, 18.188, 1.831, 4.211, 22.159, 25.910, 20.670
22541, 0.954, -0.121, 0.350, -11.292, 11.292, -4.150, 26.263, -0.417, -0.636, 0.612, -3.357, 10.986, -11.353, 24.079, -0.524, 0.832, -0.095, 20.813, 1.221, 5.676, 22.177, 25.910, 20.670
22576, 0.926, -0.133, 0.354, -11.230, 9.338, -4.517, 26.254, -0.390, -0.623, 0.585, 3.601, 11.841, -10.193, 24.058, -0.549, 0.803, -0.097, 19.470, 7.812, 0.366, 22.171, 25.910, 20.630
22609, 0.937, -0.125, 0.344, -9.949, 8.606, -6.287, 26.269, -0.381, -0.615, 0.595, 3.967, 11.047, -9.277, 24.052, -0.507, 0.790, -0.039, 25.269, 0.122, 2.502, 22.165, 25.910, 20.630
22641, 0.932, -0.116, 0.371, -11.169, 7.629, -6.287, 26.257, -0.409, -0.627, 0.593, 0.000, 13.672, -7.996, 24.055, -0.513, 0.827, -0.147, 33.142, -13.184, 5.066, 22.153, 25.910, 20.630
22676, 0.913, -0.139, 0.354, -11.047, 5.920, -3.845, 26.272, -0.388, -0.638, 0.572, 3.601, 9.521, -7.324, 24.049, -0.502, 0.834, -0.144, 23.010, -1.953, 1.404, 22.180, 25.910, 20.650
22709, 0.925, -0.138, 0.359, -9.766, 3.845, -5.981, 26.263, -0.398, -0.629, 0.594, 6.653, 13.977, -7.019, 24.070, -0.503, 0.821, -0.122, 6.592, -5.737, 1.709, 22.147, 26.150, 20.650
22744, 0.949, -0.114, 0.349, -7.385, 2.625, -5.005, 26.254, -0.430, -0.616, 0.621, 5.798, 11.597, -4.944, 24.061, -0.528, 0.825, -0.079, 4.700, -4.822, -0.244, 22.150, 26.150, 20.650
22777, 0.969, -0.114, 0.351, -8.606, 2.319, -3.784, 26.272, -0.427, -0.637, 0.612, 3.235, 9.521, -5.859, 24.034, -0.540, 0.836, -0.085, 11.047, -4.700, 0.793, 22.156, 26.150, 20.650
22810, 0.971, -0.122, 0.347, -9.705, 3.662, -3.662, 26.257, -0.427, -0.623, 0.619, 6.409, 10.071, -5.188, 24.067, -0.536, 0.829, -0.072, 8.057, -6.409, 1.709, 22.171, 26.110, 20.650
22845, 0.968, -0.128, 0.341, -9.460, 4.883, -3.235, 26.251, -0.422, -0.620, 0.643, 3.235, 6.958, -7.263, 24.052, -0.561, 0.829, -0.072, 11.719, -2.991, 0.610, 22.153, 26.110, 20.670
22878, 0.984, -0.147, 0.349, -8.728, 4.333, -2.686, 26.280, -0.408, -0.638, 0.637, 2.441, 5.188, -4.639, 24.073, -0.567, 0.834, -0.092, 13.672, -2.563, 2.258, 22.150, 26.110, 20.670
22911, 0.987, -0.150, 0.347, -8.667, 3.296, -3.479, 26.260, -0.416, -0.641, 0.638, 1.343, 8.484, -3.967, 24.055, -0.580, 0.842, -0.107, 14.038, -4.028, 3.906, 22.144, 26.090, 20.670
22946, 0.980, -0.136, 0.335, -10.010, 3.784, -6.409, 26.283, -0.429, -0.678, 0.609, 2.747, 13.062, -10.193, 24.070, -0.574, 0.833, -0.073, 7.446, -5.920, 1.465, 22.171, 26.090, 20.650
22979, 1.022, -0.064, 0.334, -15.869, 5.249, -10.925, 26.280, -0.467, -0.656, 0.625, 9.583, 23.987, -15.625, 24.055, -0.620, 0.808, 0.017, 11.719, -14.526, -6.165, 22.177, 26.090, 20.650
23012, 1.053, -0.105, 0.329, -27.588, 11.902, -10.437, 26.269, -0.452, -0.640, 0.659, 12.939, 24.048, -28.687, 24.049, -0.619, 0.838, -0.035, 30.701, -14.221, 4.456, 22.183, 26.050, 20.650
23047, 1.052, -0.163, 0.323, -29.236, 17.456, -11.719, 26.269, -0.449, -0.606, 0.720, 7.446, 25.085, -24.231, 24.046, -0.623, 0.888, -0.100, 32.166, -12.329, 8.728, 22.165, 26.050, 20.630
23080, 1.058, -0.168, 0.336, -23.682, 17.212, -13.794, 26.278, -0.436, -0.636, 0.693, -0.916, 23.499, -20.935, 24.043, -0.607, 0.884, -0.083, 21.057, -11.414, 9.094, 22.177, 26.050, 20.630
23115, 1.036, -0.103, 0.352, -18.250, 16.907, -16.113, 26.266, -0.477, -0.626, 0.671, 0.183, 32.715, -18.188, 24.070, -0.583, 0.862, -0.039, 21.851, -13.428, 15.991, 22.174, 25.930, 20.630
23148, 1.009, -0.060, 0.356, -20.447, 20.508, -15.808, 26.278, -0.500, -0.654, 0.607, -4.089, 28.442, -18.555, 24.055, -0.524, 0.877, -0.056, 23.254, -13.000, 18.372, 22.171, 25.930, 20.650
23181, 1.007, -0.080, 0.371, -19.897, 23.010, -13.916, 26.263, -0.503, -0.641, 0.615, 0.793, 29.175, -23.437, 24.034, -0.500, 0.888, -0.058, 24.353, -4.822, 15.259, 22.144, 25.930, 20.650
23216, 1.017, -0.082, 0.363, -15.991, 22.705, -11.536, 26.278, -0.484, -0.646, 0.639, -4.700, 27.222, -21.851, 24.073, -0.544, 0.900, -0.055, 24.292, -1.526, 16.479, 22.150, 26.030, 20.650
23249, 1.032, -0.058, 0.392, -12.756, 24.048, -10.254, 26.266, -0.521, -0.660, 0.602, -12.573, 23.804, -18.311, 24.070, -0.523, 0.903, -0.036, 22.522, -0.488, 20.447, 22.162, 26.030, 20.670
23282, 1.015, -0.020, 0.421, -15.320, 26.123, -9.705, 26.275, -0.526, -0.707, 0.542, -13.733, 25.146, -25.330, 24.067, -0.471, 0.904, -0.056, 30.518, -2.441, 21.545, 22.159, 26.030, 20.670
23317, 0.942, -0.041, 0.433, -17.639, 32.043, -9.827, 26.260, -0.466, -0.684, 0.538, -6.104, 28.442, -26.733, 24.064, -0.442, 0.891, -0.108, 31.677, -4.700, 20.996, 22.165, 25.970, 20.670
23350, 0.946, -0.055, 0.441, -13.367, 31.006, -9.888, 26.278, -0.490, -0.677, 0.513, -11.658, 25.879, -25.574, 24.043, -0.414, 0.883, -0.108, 23.804, 0.671, 22.949, 22.168, 25.970, 20.670
23392, 0.910, -0.054, 0.457, -12.268, 32.593, -6.531, 26.275, -0.442, -0.692, 0.521, -16.663, 22.278, -24.902, 24.073, -0.436, 0.896, -0.137, 34.363, 8.911, 21.973, 22.174, 26.030, 20.670
23424, 0.940, -0.091, 0.452, -8.240, 30.212, -7.080, 26.254, -0.453, -0.683, 0.533, -14.160, 18.250, -15.381, 24.064, -0.460, 0.906, -0.138, 27.466, 7.812, 21.729, 22.177, 26.030, 20.670
23456, 0.972, -0.050, 0.444, -4.028, 27.954, -5.798, 26.275, -0.503, -0.727, 0.539, -22.461, 20.325, -14.648, 24.094, -0.461, 0.913, -0.078, 24.841, 6.775, 20.630, 22.180, 26.030, 20.650
23490, 1.010, -0.013, 0.474, -7.202, 25.330, -2.563, 26.269, -0.546, -0.745, 0.512, -18.433, 20.508, -16.846, 24.046, -0.435, 0.922, -0.065, 39.001, -1.404, 20.081, 22.159, 26.030, 20.650
23523, 0.973, 0.020, 0.509, -12.573, 34.119, -3.601, 26.272, -0.552, -0.750, 0.481, -25.024, 25.696, -25.391, 24.058, -0.425, 0.929, -0.147, 46.204, -0.793, 22.522, 22.171, 26.030, 20.650
23555, 0.908, -0.049, 0.531, -19.165, 33.508, 4.028, 26.242, -0.423, -0.773, 0.427, -5.127, 11.414, -31.921, 24.061, -0.395, 0.893, -0.190, 47.546, 7.629, 18.921, 22.201, 26.030, 20.650
23589, 0.856, -0.110, 0.540, -21.240, 32.898, 0.793, 26.257, -0.384, -0.783, 0.459, -7.751, 15.930, -27.771, 24.055, -0.401, 0.864, -0.236, 50.537, -7.446, 14.465, 22.180, 26.090, 20.650
23621, 0.837, -0.136, 0.551, -20.691, 29.846, -0.305, 26.278, -0.312, -0.753, 0.404, -10.742, 17.700, -24.353, 24.073, -0.415, 0.843, -0.267, 66.895, -16.602, 18.799, 22.174, 26.090, 20.670
23653, 0.825, -0.137, 0.573, -16.663, 25.696, -4.272, 26.289, -0.309, -0.751, 0.401, -14.709, 27.039, -12.085, 24.070, -0.371, 0.860, -0.336, 59.998, -23.499, 23.315, 22.168, 26.090, 20.670
23688, 0.775, -0.128, 0.629, -13.733, 26.855, -5.005, 26.248, -0.328, -0.801, 0.353, -26.367, 27.527, -0.122, 24.055, -0.342, 0.845, -0.328, 55.664, -22.339, 24.780, 22.201, 26.430, 20.670
23720, 0.736, -0.075, 0.613, -13.245, 24.109, -10.864, 26.280, -0.410, -0.792, 0.307, -5.737, 31.372, -12.207, 24.064, -0.345, 0.882, -0.468, 52.612, -11.963, 29.358, 22.171, 26.430, 20.650
23754, 0.773, -0.064, 0.614, -10.010, 23.376, -20.081, 26.263, -0.352, -0.795, 0.281, -11.841, 28.687, -14.160, 24.088, -0.324, 0.747, -0.117, 33.997, -41.992, 20.325, 22.183, 26.430, 20.650
23786, 0.761, -0.040, 0.636, -17.639, 24.109, -11.597, 26.263, -0.350, -0.812, 0.284, -26.550, 29.236, -1.404, 24.067, -0.371, 0.732, -0.258, 103.699, -77.454, 54.504, 22.165, 26.610, 20.650
23818, 0.724, -0.055, 0.651, -24.658, 28.564, -1.892, 26.248, -0.351, -0.816, 0.253, -20.691, 26.184, 10.315, 24.091, -0.313, 0.733, -0.389, 97.046, -82.520, 6.958, 22.186, 26.610, 20.710
23853, 0.714, -0.122, 0.703, -24.231, 24.292, -4.089, 26.289, -0.403, -0.811, 0.240, -33.142, 13.916, 15.442, 24.094, -0.288, 0.629, -0.515, 124.878, -97.534, 9.460, 22.183, 26.610, 20.710
23885, 0.700, -0.122, 0.659, -21.301, 28.809, -10.315, 26.292, -0.425, -0.806, 0.282, -11.963, 8.118, -0.549, 24.064, -0.265, 0.921, -0.796, 122.131, -18.860, 21.362, 22.159, 25.590, 20.710
23917, 0.761, -0.104, 0.676, -19.348, 25.513, -12.390, 26.283, -0.397, -0.827, 0.249, -16.907, 1.709, 5.554, 24.085, -0.317, 0.729, -0.650, 31.555, 53.467, 43.701, 22.189, 25.590, 20.670
23951, 0.701, -0.135, 0.751, -12.817, 29.663, -11.780, 26.272, -0.408, -0.866, 0.211, -21.606, 4.639, -10.376, 24.082, -0.281, 0.672, -0.675, 26.550, 127.380, 45.288, 22.153, 25.590, 20.670
23983, 0.635, -0.141, 0.712, -6.897, 14.954, -18.005, 26.269, -0.348, -0.848, 0.163, 7.385, 1.587, -24.780, 24.070, 0.019, 0.744, -0.662, 18.738, 175.964, 92.529, 22.171, 25.530, 20.670
24018, 0.647, -0.183, 0.722, -27.710, 14.038, -19.531, 26.283, -0.222, -0.842, 0.186, 10.071, 3.845, -0.244, 24.094, 0.221, 0.625, -0.647, 18.738, 41.626, 14.771, 22.174, 25.530, 20.670
24050, 0.483, -0.276, 0.754, -4.822, -2.869, -7.812, 26.272, -0.240, -0.832, 0.162, -2.747, 15.076, 4.883, 24.091, 0.060, 0.711, -0.654, 32.654, -29.663, 1.892, 22.177, 25.530, 20.670
24082, 0.572, -0.165, 0.706, -11.353, -7.324, 14.832, 26.278, -0.288, -0.839, 0.210, 19.470, -11.414, 7.690, 24.082, 0.047, 0.749, -0.736, 13.184, -61.584, -32.349, 22.192, 26.530, 20.670
24116, 0.726, -0.251, 0.708, -3.296, -7.812, 10.132, 26.269, -0.336, -0.791, 0.316, 22.034, -1.892, 17.700, 24.097, -0.436, 0.899, -0.783, -28.137, -32.471, -34.363, 22.168, 26.530, 20.670
24149, 0.771, -0.207, 0.626, 15.991, -14.648, 0.427, 26.280, -0.366, -0.805, 0.384, -4.028, -11.780, 20.508, 24.097, -0.463, 0.629, -0.448, -23.254, 8.057, -4.333, 22.168, 26.530, 20.670
24182, 0.880, -0.148, 0.644, 9.705, -14.221, 3.784, 26.286, -0.441, -0.848, 0.370, -15.625, -5.981, 27.466, 24.088, -0.237, 0.830, -0.513, 8.301, 17.395, 7.324, 22.177, 25.730, 20.670
24217, 0.838, -0.171, 0.670, 9.338, -6.592, 10.803, 26.289, -0.480, -0.851, 0.354, -11.658, -8.179, 14.709, 24.106, -0.179, 0.883, -0.611, 5.737, -2.930, -20.996, 22.195, 25.730, 20.710
24250, 0.854, -0.186, 0.682, 12.451, -1.770, 12.207, 26.272, -0.451, -0.841, 0.389, -12.329, -15.259, 13.855, 24.082, -0.288, 0.868, -0.602, -10.071, 3.784, -21.851, 22.180, 25.730, 20.710
24283, 0.858, -0.163, 0.655, 16.357, -0.671, 12.512, 26.280, -0.442, -0.831, 0.354, -29.419, -17.029, 26.611, 24.079, -0.249, 0.869, -0.545, -10.010, 0.427, -19.836, 22.147, 25.690, 20.710
24318, 0.871, -0.169, 0.638, 16.663, 1.282, 13.245, 26.269, -0.512, -0.846, 0.372, -28.625, -12.024, 24.963, 24.073, -0.156, 0.880, -0.564, 2.380, -5.920, -28.320, 22.171, 25.690, 20.650
24351, 0.873, -0.159, 0.646, 17.517, 6.348, 17.029, 26.286, -0.555, -0.817, 0.349, -13.428, -9.705, 8.240, 24.070, -0.110, 0.850, -0.572, 9.521, 30.579, -22.766, 22.186, 25.690, 20.650
24386, 0.875, -0.133, 0.649, 18.616, 6.348, 21.484, 26.272, -0.542, -0.797, 0.336, -6.104, -14.832, -7.568, 24.055, -0.167, 0.826, -0.634, -41.931, 101.807, -9.888, 22.168, 25.370, 20.650
24419, 0.825, -0.156, 0.664, 21.851, 4.150, 25.269, 26.263, -0.458, -0.811, 0.312, -18.860, -11.292, -4.639, 24.085, -0.408, 0.801, -0.508, -59.265, 97.351, -7.568, 22.177, 25.370, 20.670
24452, 0.809, -0.151, 0.658, 29.358, -2.991, 22.034, 26.266, -0.482, -0.840, 0.288, -19.775, -8.911, 6.958, 24.079, -0.446, 0.868, -0.494, -56.396, 86.243, -47.607, 22.183, 25.370, 20.670
24487, 0.843, -0.097, 0.661, 26.855, -4.272, 17.700, 26.266, -0.508, -0.823, 0.280, -11.963, -11.841, 6.836, 24.055, -0.505, 0.800, -0.371, -90.942, 26.306, -37.292, 22.162, 26.730, 20.670
24520, 0.835, -0.147, 0.675, 23.071, 1.587, 15.503, 26.272, -0.466, -0.818, 0.304, -18.616, -13.000, 8.362, 24.073, -0.388, 0.837, -0.325, -20.996, 27.954, 1.282, 22.174, 26.730, 20.670
24553, 0.799, -0.131, 0.670, 24.597, 2.502, 10.864, 26.251, -0.470, -0.834, 0.272, -29.297, -16.602, 17.151, 24.085, -0.298, 0.928, -0.407, 2.441, 23.193, 2.014, 22.150, 26.730, 20.670
24588, 0.809, -0.119, 0.685, 24.658, 2.625, 10.132, 26.292, -0.509, -0.820, 0.236, -23.987, -14.893, 19.409, 24.067, -0.228, 0.906, -0.474, -19.226, 18.250, 5.737, 22.201, 26.610, 20.670
24621, 0.762, -0.095, 0.696, 28.137, 2.991, 13.428, 26.254, -0.517, -0.803, 0.198, -26.550, -16.418, 13.306, 24.076, -0.128, 0.901, -0.440, -20.935, 26.123, 8.362, 22.180, 26.610, 20.670
24656, 0.729, -0.064, 0.702, 30.090, 3.174, 17.822, 26.269, -0.495, -0.813, 0.139, -27.588, -19.348, 9.949, 24.076, -0.161, 0.858, -0.429, -29.846, 44.189, -19.043, 22.159, 26.610, 20.670
24689, 0.706, -0.081, 0.717, 29.236, 2.502, 18.433, 26.269, -0.465, -0.796, 0.120, -22.278, -15.869, 6.409, 24.073, -0.226, 0.869, -0.406, -11.658, 54.138, 1.770, 22.162, 26.990, 20.670
24722, 0.677, -0.044, 0.701, 30.212, 2.380, 14.648, 26.286, -0.459, -0.786, 0.109, -28.625, -14.343, 5.859, 24.073, -0.089, 0.851, -0.367, -29.724, 40.344, -5.188, 22.177, 26.990, 20.710
24757, 0.700, -0.003, 0.708, 22.888, -0.366, 13.916, 26.295, -0.485, -0.834, 0.069, -28.320, -20.203, 5.310, 24.088, -0.131, 0.872, -0.357, -7.324, 36.072, -8.728, 22.171, 26.990, 20.710
24790, 0.707, -0.010, 0.729, 15.076, 2.869, 15.503, 26.272, -0.508, -0.841, 0.046, -18.311, -14.587, 5.859, 24.082, -0.134, 0.895, -0.357, -1.709, 29.297, -2.686, 22.171, 26.910, 20.710
24823, 0.717, -0.041, 0.718, 10.193, 4.089, 13.245, 26.272, -0.495, -0.814, 0.098, -2.319, -15.686, -6.042, 24.085, -0.152, 0.898, -0.349, 0.305, 31.311, -8.423, 22.186, 26.910, 20.670
24858, 0.746, -0.023, 0.718, 6.836, 2.930, 11.414, 26.266, -0.492, -0.838, 0.096, -9.583, -9.033, -2.197, 24.085, -0.164, 0.919, -0.317, 8.179, 18.372, -4.211, 22.183, 26.850, 20.670
24891, 0.718, -0.033, 0.723, 1.526, 2.014, 9.888, 26.283, -0.487, -0.839, 0.078, -7.019, -10.986, 4.333, 24.085, -0.128, 0.924, -0.356, 11.353, 10.254, -9.094, 22.177, 26.850, 20.670
24924, 0.722, -0.045, 0.727, -2.991, -0.244, 8.240, 26.289, -0.513, -0.831, 0.095, -2.869, -7.690, 2.197, 24.076, -0.168, 0.909, -0.379, 7.874, 1.160, -10.193, 22.192, 26.850, 20.650
24959, 0.704, -0.045, 0.717, -5.676, -4.456, 7.385, 26.283, -0.448, -0.769, 0.120, -2.991, -15.686, 7.202, 24.073, -0.148, 0.903, -0.362, 8.667, -0.793, -9.766, 22.168, 26.870, 20.650
24992, 0.685, -0.061, 0.719, -7.324, -10.437, 5.249, 26.286, -0.437, -0.810, 0.085, -26.855, -24.780, 19.531, 24.073, -0.147, 0.883, -0.389, 9.888, -5.493, -12.756, 22.171, 26.870, 20.670
25027, 0.660, -0.065, 0.722, -8.301, -16.052, 2.197, 26.278, -0.456, -0.793, 0.027, -26.489, -25.635, 33.508, 24.082, -0.129, 0.866, -0.423, 5.920, -11.475, -13.855, 22.174, 26.870, 20.670
25060, 0.618, -0.095, 0.726, -8.606, -22.217, 1.465, 26.280, -0.463, -0.772, 0.025, -10.803, -29.968, 32.410, 24.085, -0.106, 0.851, -0.436, 4.089, -12.756, -16.174, 22.177, 26.850, 20.670
25093, 0.617, -0.056, 0.729, -8.179, -29.480, -1.953, 26.263, -0.480, -0.768, 0.023, -6.592, -38.147, 34.607, 24.097, -0.079, 0.834, -0.409, -1.587, -26.550, -21.851, 22.171, 26.850, 20.670
25128, 0.566, -0.021, 0.677, -9.399, -38.025, -3.723, 26.266, -0.475, -0.744, -0.058, -2.136, -49.438, 50.354, 24.076, -0.097, 0.811, -0.351, 0.244, -34.058, -30.579, 22.168, 26.850, 20.670
25161, 0.699, 0.003, 0.622, -18.555, -48.157, -5.066, 26.283, -0.544, -0.704, 0.016, 13.428, -45.349, 67.627, 24.088, -0.164, 0.836, -0.268, -3.723, -44.006, -45.227, 22.168, 26.970, 20.670
25194, 0.765, -0.055, 0.571, -25.513, -45.837, -0.366, 26.248, -0.594, -0.726, 0.135, 6.226, -40.344, 68.176, 24.094, -0.292, 0.835, -0.287, 12.573, -40.344, -46.570, 22.168, 26.970, 20.670
25229, 0.838, -0.124, 0.560, -31.921, -41.931, -0.977, 26.263, -0.655, -0.746, 0.154, 19.043, -26.428, 38.330, 24.079, -0.389, 0.871, -0.347, 7.568, -42.725, -41.687, 22.159, 26.970, 20.670
25262, 0.915, -0.248, 0.495, -29.785, -36.743, -4.944, 26.301, -0.574, -0.716, 0.315, 78.979, -12.085, -21.301, 24.091, -0.524, 0.900, -0.380, 1.953, -28.442, -35.278, 22.177, 26.730, 20.670
25297, 1.075, -0.322, 0.428, -17.883, -28.809, -12.390, 26.266, -0.565, -0.743, 0.546, 94.238, 14.465, -46.997, 24.073, -0.662, 0.966, -0.313, -29.785, -21.790, -17.822, 22.144, 26.730, 20.650
25330, 1.187, -0.271, 0.436, -1.160, -23.132, -18.860, 26.283, -0.649, -0.700, 0.664, 89.600, 29.114, -23.071, 24.076, -0.659, 0.937, -0.174, -36.987, -13.428, -5.981, 22.159, 26.730, 20.650
25363, 1.110, -0.151, 0.451, 6.348, -14.587, -16.479, 26.245, -0.740, -0.657, 0.660, 30.396, 10.559, 3.906, 24.079, -0.525, 0.956, -0.134, -13.000, -1.953, 6.653, 22.153, 26.490, 20.650
25398, 1.075, -0.117, 0.451, 7.812, -9.583, -6.592, 26.280, -0.713, -0.688, 0.570, -28.687, -11.719, 29.236, 24.067, -0.458, 0.949, -0.183, -1.038, 5.188, -0.610, 22.147, 26.490, 20.670
25431, 1.051, -0.170, 0.420, 9.949, -6.409, 3.967, 26.269, -0.690, -0.680, 0.501, -33.020, -22.400, 30.823, 24.085, -0.540, 0.933, -0.179, -2.930, 18.250, -8.240, 22.153, 26.490, 20.670
25464, 1.095, -0.151, 0.411, 13.184, -5.920, 6.409, 26.272, -0.693, -0.729, 0.521, -18.433, -16.235, 14.771, 24.088, -0.590, 0.911, -0.117, -0.977, 15.808, -10.132, 22.141, 26.430, 20.670
25499, 1.070, -0.149, 0.413, 6.775, 5.859, 12.146, 26.278, -0.703, -0.757, 0.489, -15.686, -11.902, -2.869, 24.091, -0.570, 0.901, -0.141, 16.418, 20.691, -5.066, 22.153, 26.430, 20.670
25532, 1.000, -0.169, 0.446, 5.615, 6.897, 14.282, 26.272, -0.602, -0.679, 0.469, -6.165, -14.954, -5.737, 24.079, -0.526, 0.891, -0.221, 19.836, 16.846, -3.723, 22.126, 26.430, 20.670
25565, 0.928, -0.182, 0.485, 8.606, 5.188, 15.381, 26.263, -0.573, -0.701, 0.401, -32.532, -14.099, 6.653, 24.076, -0.461, 0.875, -0.262, 29.907, 5.371, 5.432, 22.147, 26.350, 20.670
25600, 0.871, -0.167, 0.512, 9.399, 2.380, 14.526, 26.272, -0.576, -0.699, 0.337, -31.677, -23.743, 29.846, 24.061, -0.429, 0.840, -0.283, 29.907, 5.798, -9.949, 22.147, 26.350, 20.670
25633, 0.832, -0.177, 0.519, 8.728, 0.061, 14.832, 26.260, -0.559, -0.689, 0.305, -48.767, -28.015, 38.513, 24.100, -0.439, 0.821, -0.309, 33.386, -3.723, -11.414, 22.141, 26.350, 20.670
25668, 0.812, -0.161, 0.527, 11.353, -5.920, 11.047, 26.275, -0.562, -0.691, 0.239, -52.734, -34.058, 46.265, 24.079, -0.409, 0.823, -0.344, 41.565, -10.498, -13.672, 22.126, 26.470, 20.670
25701, 0.831, -0.125, 0.515, 10.803, -8.301, 7.935, 26.272, -0.606, -0.692, 0.199, -38.513, -31.128, 47.729, 24.100, -0.414, 0.843, -0.406, 23.743, -3.113, -8.911, 22.141, 26.470, 20.710
25734, 0.841, -0.130, 0.504, 8.789, -7.385, 6.165, 26.295, -0.649, -0.642, 0.252, -28.442, -23.071, 33.264, 24.133, -0.388, 0.816, -0.341, -16.602, 6.226, -9.766, 22.147, 26.470, 20.710
25769, 0.851, -0.099, 0.498, 9.033, -9.216, 5.249, 26.269, -0.625, -0.666, 0.224, -22.644, -17.334, 27.161, 24.094, -0.375, 0.816, -0.255, -10.498, 8.911, -12.268, 22.153, 26.550, 20.710
25802, 0.851, -0.105, 0.493, 5.066, -8.423, 5.371, 26.278, -0.649, -0.647, 0.229, -11.475, -13.611, 34.790, 24.091, -0.433, 0.813, -0.274, -5.066, 2.930, -12.207, 22.144, 26.550, 20.670
25835, 0.855, -0.164, 0.487, 5.554, -11.230, 6.775, 26.286, -0.635, -0.624, 0.272, -9.888, -18.066, 38.086, 24.100, -0.411, 0.842, -0.346, 0.610, 5.920, -7.019, 22.147, 26.550, 20.670
25870, 0.921, -0.180, 0.488, 12.756, -10.864, 0.671, 26.292, -0.679, -0.682, 0.304, -8.118, -17.822, 27.954, 24.091, -0.478, 0.872, -0.353, -13.794, 8.179, -8.667, 22.165, 26.430, 20.670
25903, 0.911, -0.215, 0.479, 18.188, -8.850, 0.977, 26.272, -0.637, -0.664, 0.262, 5.798, -6.104, 10.620, 24.112, -0.513, 0.876, -0.400, -30.579, 21.179, 5.676, 22.144, 26.430, 20.670
25936, 0.902, -0.189, 0.465, 24.414, -7.263, -5.188, 26.283, -0.662, -0.649, 0.306, 13.794, 7.507, -11.414, 24.103, -0.509, 0.856, -0.358, -76.538, 35.889, 1.892, 22.153, 26.530, 20.670
25971, 0.948, -0.161, 0.420, 30.457, -12.939, -10.132, 26.280, -0.697, -0.593, 0.403, 26.733, 5.615, -5.615, 24.103, -0.516, 0.856, -0.145, -77.942, 40.710, -0.427, 22.150, 26.530, 20.670
26004, 0.992, -0.070, 0.404, 29.968, -14.465, -9.888, 26.266, -0.779, -0.566, 0.438, 24.719, 0.732, 3.540, 24.088, -0.536, 0.847, -0.020, -69.763, 19.653, 9.644, 22.126, 26.530, 20.630
26039, 0.987, -0.077, 0.403, 23.010, -11.475, -2.808, 26.295, -0.783, -0.581, 0.422, -3.052, -17.151, 13.062, 24.070, -0.469, 0.864, -0.094, -33.569, 30.090, 14.832, 22.165, 26.290, 20.630
26072, 0.968, -0.058, 0.423, 19.531, -9.094, 1.587, 26.307, -0.735, -0.625, 0.353, 6.409, -11.108, -14.893, 24.082, -0.439, 0.872, -0.085, -32.410, 26.367, 8.972, 22.150, 26.290, 20.670
26105, 0.943, -0.076, 0.417, 17.822, -11.292, 5.981, 26.283, -0.699, -0.612, 0.351, 22.278, -10.925, -19.470, 24.064, -0.432, 0.887, -0.084, -22.888, 27.954, 1.526, 22.141, 26.290, 20.670
26140, 0.945, -0.082, 0.422, 16.174, -13.245, 7.935, 26.280, -0.667, -0.631, 0.380, 20.752, -10.498, -20.569, 24.103, -0.432, 0.882, -0.099, -21.790, 22.827, -0.122, 22.144, 26.430, 20.670
26173, 0.920, -0.076, 0.410, 16.357, -10.559, 8.240, 26.283, -0.677, -0.620, 0.304, 31.738, 0.305, -33.875, 24.094, -0.403, 0.894, -0.093, -20.142, 25.391, -3.113, 22.150, 26.430, 20.710
26206, 0.915, -0.082, 0.412, 17.273, -14.404, 8.118, 26.292, -0.627, -0.605, 0.386, 49.316, 0.061, -35.706, 24.106, -0.406, 0.862, -0.104, -22.522, 17.944, -7.446, 22.144, 26.430, 20.710
26242, 0.899, -0.060, 0.409, 18.372, -17.761, 12.024, 26.278, -0.650, -0.583, 0.401, 48.279, -2.319, -35.339, 24.085, -0.378, 0.868, -0.098, -23.621, 29.175, -10.986, 22.147, 26.430, 20.710
26275, 0.897, -0.026, 0.375, 17.334, -20.874, 12.390, 26.292, -0.629, -0.570, 0.403, 30.273, -15.137, -17.700, 24.091, -0.366, 0.875, -0.028, -27.466, 15.320, -13.977, 22.159, 26.430, 20.670
26311, 0.958, -0.080, 0.361, 17.273, -22.949, 16.113, 26.283, -0.653, -0.592, 0.476, 21.240, -25.635, 3.784, 24.112, -0.437, 0.875, -0.031, -20.630, 26.611, -23.743, 22.135, 26.430, 20.670
26342, 0.978, -0.104, 0.348, 18.188, -20.142, 19.653, 26.298, -0.670, -0.593, 0.462, 25.452, -22.522, -18.066, 24.097, -0.475, 0.891, -0.064, -20.569, 28.687, -13.672, 22.174, 26.350, 20.670
26374, 0.965, -0.145, 0.351, 22.705, -16.846, 20.081, 26.275, -0.580, -0.617, 0.477, 30.640, -15.015, -42.542, 24.085, -0.467, 0.888, -0.089, -28.992, 42.786, -13.062, 22.147, 26.350, 20.710
26408, 0.998, -0.133, 0.300, 28.503, -19.104, 18.982, 26.280, -0.607, -0.608, 0.574, 40.344, -10.803, -27.771, 24.097, -0.580, 0.868, -0.007, -40.100, 42.969, -20.142, 22.156, 26.350, 20.710
26458, 1.086, -0.164, 0.294, 27.832, -14.587, 17.151, 26.289, -0.548, -0.575, 0.653, 28.687, -17.395, -21.851, 24.109, -0.576, 0.883, 0.044, -20.142, 38.208, -2.930, 22.147, 26.290, 20.710
26490, 1.044, -0.103, 0.302, 25.330, -8.484, 16.968, 26.292, -0.603, -0.624, 0.586, -0.793, -26.733, -6.592, 24.085, -0.534, 0.863, 0.048, -19.836, 31.189, -5.310, 22.153, 26.290, 20.650
26524, 1.012, -0.137, 0.298, 20.386, -4.028, 19.775, 26.278, -0.534, -0.624, 0.587, -5.737, -27.283, -3.723, 24.106, -0.560, 0.867, 0.027, 2.441, 34.485, -6.104, 22.162, 26.150, 20.650
26556, 1.061, -0.116, 0.299, 15.076, -3.784, 17.212, 26.248, -0.595, -0.665, 0.580, -9.277, -25.024, -5.005, 24.088, -0.579, 0.859, 0.058, -4.944, 24.048, -8.423, 22.162, 26.150, 20.650
26588, 1.104, -0.116, 0.246, 4.944, 5.127, 16.785, 26.280, -0.576, -0.671, 0.629, 1.343, -15.381, -16.846, 24.133, -0.651, 0.851, 0.131, 11.475, 23.987, -15.686, 22.144, 26.150, 20.710
26622, 1.182, -0.128, 0.225, -8.484, 12.695, 14.465, 26.257, -0.602, -0.670, 0.698, 8.057, 0.183, -31.250, 24.103, -0.750, 0.873, 0.159, 30.090, 13.550, -14.709, 22.135, 26.110, 20.710
26654, 1.204, -0.244, 0.265, -20.264, 19.958, 11.780, 26.304, -0.539, -0.667, 0.748, 6.287, 8.728, -44.250, 24.115, -0.741, 0.920, 0.008, 49.438, 9.827, -5.798, 22.153, 26.110, 20.710
26688, 1.094, -0.340, 0.295, -15.076, 25.757, 8.728, 26.298, -0.420, -0.629, 0.766, 3.174, 17.029, -37.964, 24.106, -0.747, 0.953, -0.179, 50.903, 22.095, 4.028, 22.147, 26.110, 20.710
26720, 1.060, -0.361, 0.321, -3.601, 21.545, -4.395, 26.295, -0.369, -0.646, 0.726, -8.789, 15.747, -15.930, 24.100, -0.712, 0.914, -0.168, 13.916, 3.113, 16.113, 22.168, 26.110, 20.710
26752, 1.016, -0.260, 0.326, 5.310, 19.348, -10.742, 26.269, -0.426, -0.638, 0.654, -16.357, 18.127, -0.427, 24.115, -0.604, 0.885, -0.102, 7.141, 8.240, 22.156, 22.165, 26.110, 20.710
26786, 0.976, -0.151, 0.341, 9.033, 18.433, -13.733, 26.260, -0.528, -0.660, 0.546, -23.010, 16.174, 3.418, 24.124, -0.499, 0.857, -0.050, 1.709, 7.507, 22.095, 22.165, 26.110, 20.710
26818, 0.963, -0.065, 0.316, 6.409, 18.982, -10.132, 26.275, -0.564, -0.621, 0.516, -6.409, 16.785, 3.052, 24.103, -0.446, 0.820, 0.036, 5.981, 5.615, 18.250, 22.162, 26.150, 20.710
26850, 0.942, -0.080, 0.369, 2.625, 20.447, -2.502, 26.283, -0.539, -0.636, 0.497, -19.897, 11.230, -7.202, 24.115, -0.408, 0.824, -0.040, 26.306, 16.907, 16.602, 22.168, 26.150, 20.710
26884, 0.901, -0.108, 0.367, -0.916, 23.376, 0.671, 26.286, -0.490, -0.656, 0.466, -14.648, 8.118, -18.372, 24.127, -0.425, 0.838, -0.083, 27.039, 12.024, 12.512, 22.156, 26.150, 20.670
26916, 0.920, -0.160, 0.401, -0.122, 23.193, 2.625, 26.275, -0.449, -0.665, 0.493, -10.376, 10.620, -15.747, 24.091, -0.456, 0.848, -0.126, 31.982, 13.184, 12.817, 22.162, 26.170, 20.670
26948, 0.903, -0.179, 0.455, 4.150, 21.301, 2.014, 26.286, -0.424, -0.689, 0.458, -26.123, 10.315, -7.751, 24.097, -0.419, 0.875, -0.218, 31.860, 18.250, 17.334, 22.165, 26.170, 20.670
26982, 0.864, -0.159, 0.475, 8.362, 23.132, 0.916, 26.295, -0.446, -0.711, 0.421, -31.067, 5.615, 2.014, 24.121, -0.382, 0.857, -0.182, 22.705, 15.198, 17.700, 22.165, 26.170, 20.710
27014, 0.852, -0.102, 0.485, 10.376, 21.545, 0.122, 26.269, -0.473, -0.720, 0.344, -28.625, 6.470, -0.488, 24.097, -0.346, 0.849, -0.093, 44.067, 1.831, 16.846, 22.162, 26.350, 20.710
27048, 0.812, -0.060, 0.513, 5.920, 18.555, 3.479, 26.263, -0.478, -0.735, 0.318, -29.541, 3.662, 6.409, 24.094, -0.290, 0.870, -0.143, 87.402, -32.410, 24.170, 22.183, 26.350, 20.710
27080, 0.792, -0.075, 0.517, 5.676, 21.423, 6.348, 26.283, -0.512, -0.729, 0.301, -21.057, -0.061, -3.845, 24.103, -0.216, 0.842, -0.531, 57.678, 9.399, 9.155, 22.189, 26.350, 20.650
27113, 0.813, -0.114, 0.524, 6.042, 24.048, 6.042, 26.280, -0.435, -0.714, 0.295, -9.399, 4.333, -20.874, 24.115, -0.354, 0.850, -0.218, 11.230, 25.879, 5.066, 22.144, 26.550, 20.650
27147, 0.798, -0.104, 0.519, 5.310, 23.376, 3.601, 26.295, -0.404, -0.739, 0.308, -16.907, 7.935, -11.536, 24.133, -0.312, 0.789, -0.165, 33.447, 10.620, 1.709, 22.180, 26.550, 20.650
27179, 0.771, -0.069, 0.576, 1.892, 22.400, 4.150, 26.295, -0.444, -0.762, 0.222, -23.132, 7.629, -7.629, 24.100, -0.282, 0.824, -0.253, 72.144, -5.615, -10.010, 22.171, 26.550, 20.650
27211, 0.726, -0.068, 0.619, -2.014, 21.118, 2.869, 26.295, -0.431, -0.774, 0.185, -15.259, 8.179, -10.132, 24.109, -0.292, 0.797, -0.371, 100.708, -18.433, 17.700, 22.198, 26.370, 20.650
27245, 0.684, -0.062, 0.632, -2.136, 18.250, 1.465, 26.275, -0.426, -0.781, 0.175, -10.803, 4.578, -7.446, 24.088, -0.251, 0.766, -0.426, 98.938, -52.307, 35.950, 22.162, 26.370, 20.650
27278, 0.698, -0.045, 0.618, -4.883, 11.597, 4.578, 26.263, -0.421, -0.782, 0.158, -6.287, -1.282, -3.845, 24.100, -0.178, 0.744, -0.392, 54.016, -53.589, -10.559, 22.189, 26.370, 20.710
27310, 0.706, -0.070, 0.604, -10.986, 7.446, 6.714, 26.275, -0.405, -0.776, 0.196, 1.099, -5.737, -5.615, 24.130, -0.311, 0.731, -0.398, 58.167, -67.200, -35.522, 22.168, 26.410, 20.710
27344, 0.742, -0.166, 0.562, -13.245, 3.784, 9.705, 26.280, -0.386, -0.750, 0.288, 8.728, -10.315, -3.967, 24.112, -0.390, 0.718, -0.449, 83.801, -81.909, -25.208, 22.189, 26.410, 20.710
27376, 0.806, -0.185, 0.521, -10.986, -2.502, 7.812, 26.283, -0.403, -0.739, 0.391, 10.376, -11.902, 1.343, 24.097, -0.469, 0.765, -0.501, 57.922, -68.970, -50.964, 22.165, 26.410, 20.710
27410, 0.915, -0.256, 0.505, -11.108, -2.258, 9.399, 26.286, -0.430, -0.789, 0.473, 2.258, -14.282, 2.319, 24.115, -0.633, 0.794, -0.461, 27.100, -52.124, -34.790, 22.159, 25.630, 20.710
27443, 1.000, -0.312, 0.484, -7.507, -3.479, 8.362, 26.275, -0.423, -0.808, 0.541, 4.211, -10.864, 5.005, 24.115, -0.710, 0.832, -0.433, 21.118, -24.780, -14.038, 22.162, 25.630, 20.650
27475, 1.046, -0.326, 0.476, -1.221, -0.916, 4.517, 26.278, -0.495, -0.782, 0.632, 7.812, -4.150, 10.681, 24.115, -0.731, 0.867, -0.399, -9.094, -6.592, -11.414, 22.162, 25.630, 20.650
27509, 1.117, -0.297, 0.458, 9.460, -2.441, 6.775, 26.272, -0.549, -0.806, 0.688, -11.353, -10.925, 17.151, 24.097, -0.703, 0.876, -0.316, -7.080, 10.803, 0.671, 22.177, 25.370, 20.650
27541, 1.101, -0.260, 0.473, 10.620, -1.587, 13.855, 26.280, -0.584, -0.835, 0.607, -18.799, -19.287, 14.709, 24.109, -0.697, 0.854, -0.285, -0.854, 18.005, -6.409, 22.174, 25.370, 20.670
27573, 1.053, -0.252, 0.481, 8.362, 0.793, 17.334, 26.280, -0.542, -0.830, 0.558, -7.996, -18.311, -3.174, 24.088, -0.665, 0.861, -0.361, 19.287, 27.100, -10.742, 22.141, 25.370, 20.670
27608, 0.967, -0.297, 0.507, 8.240, 5.493, 19.836, 26.292, -0.441, -0.795, 0.522, -2.380, -16.296, -11.475, 24.130, -0.600, 0.754, -0.441, 1.160, 44.067, -17.944, 22.153, 25.430, 20.670
27640, 0.898, -0.295, 0.518, 9.949, 5.249, 20.569, 26.289, -0.397, -0.791, 0.462, -9.521, -18.005, -6.714, 24.121, -0.613, 0.772, -0.530, 0.305, 68.909, -0.122, 22.129, 25.430, 20.670
27672, 0.861, -0.281, 0.535, 15.686, 7.629, 15.198, 26.295, -0.379, -0.766, 0.396, -9.888, -11.719, -4.700, 24.103, -0.572, 0.744, -0.616, -18.433, 116.455, 34.119, 22.168, 25.430, 20.670
27706, 0.802, -0.245, 0.550, 21.057, 7.996, 11.597, 26.289, -0.364, -0.761, 0.357, -13.428, -7.507, -4.822, 24.124, -0.515, 0.726, -0.530, -84.595, 102.234, 29.785, 22.162, 26.490, 20.670
27738, 0.767, -0.209, 0.570, 26.245, 7.996, 7.507, 26.292, -0.380, -0.770, 0.301, -18.311, -4.822, 0.854, 24.103, -0.483, 0.693, -0.317, -125.427, 82.581, 34.119, 22.171, 26.490, 20.670
27773, 0.765, -0.125, 0.585, 23.804, 5.981, 4.333, 26.289, -0.418, -0.781, 0.261, -17.761, -3.540, 4.822, 24.142, -0.355, 0.726, -0.233, -71.716, 48.157, 40.466, 22.177, 26.490, 20.670
27805, 0.784, -0.141, 0.571, 19.104, 7.324, 7.324, 26.295, -0.442, -0.768, 0.277, -13.855, -5.432, 0.244, 24.115, -0.276, 0.794, -0.339, -18.799, 46.448, 33.203, 22.144, 27.210, 20.670
27837, 0.799, -0.173, 0.577, 18.982, 10.559, 6.775, 26.295, -0.408, -0.783, 0.325, -13.611, -8.728, -4.822, 24.124, -0.373, 0.800, -0.362, -10.132, 62.134, 4.578, 22.141, 27.210, 20.710
27872, 0.845, -0.156, 0.567, 17.456, 10.010, 4.272, 26.280, -0.426, -0.827, 0.331, -22.278, -7.385, 4.272, 24.136, -0.370, 0.876, -0.192, 6.958, 46.448, -0.854, 22.144, 27.210, 20.710
27905, 0.873, -0.177, 0.572, 12.207, 9.583, 7.385, 26.280, -0.464, -0.813, 0.372, -13.672, -7.080, 2.869, 24.109, -0.316, 0.854, -0.376, 31.433, 28.870, 7.568, 22.177, 26.970, 20.710
27938, 0.872, -0.212, 0.582, 12.756, 10.193, 10.803, 26.289, -0.440, -0.814, 0.378, -9.644, -9.399, -3.967, 24.103, -0.357, 0.899, -0.410, 20.508, 24.292, 2.014, 22.141, 26.970, 20.670
27973, 0.868, -0.216, 0.575, 13.977, 9.827, 9.827, 26.295, -0.413, -0.818, 0.388, -14.893, -10.803, 0.854, 24.112, -0.397, 0.856, -0.359, 13.062, 27.283, -6.836, 22.165, 26.970, 20.670
28006, 0.884, -0.201, 0.579, 12.451, 11.230, 9.216, 26.295, -0.419, -0.840, 0.379, -19.348, -10.376, 3.418, 24.130, -0.417, 0.848, -0.345, 34.912, 10.254, -4.578, 22.147, 26.910, 20.670
28041, 0.862, -0.223, 0.589, 9.338, 15.320, 7.446, 26.275, -0.409, -0.852, 0.349, -18.799, -5.188, 0.122, 24.121, -0.422, 0.857, -0.406, 48.462, 4.944, -0.366, 22.156, 26.910, 20.670
28074, 0.818, -0.210, 0.611, 7.202, 15.259, 4.517, 26.295, -0.385, -0.820, 0.320, -15.259, -2.136, 1.587, 24.139, -0.408, 0.819, -0.431, 46.326, -11.841, 4.517, 22.165, 26.910, 20.670
28107, 0.784, -0.178, 0.634, 7.751, 15.320, 1.648, 26.298, -0.398, -0.825, 0.273, -18.372, 0.061, 2.258, 24.115, -0.325, 0.746, -0.420, 46.692, -36.926, 2.625, 22.165, 26.530, 20.670
28142, 0.748, -0.156, 0.655, 5.737, 13.123, 2.441, 26.266, -0.399, -0.837, 0.228, -18.921, -2.014, 5.249, 24.109, -0.280, 0.765, -0.544, 59.082, -39.001, -6.836, 22.168, 26.530, 20.710
28175, 0.716, -0.150, 0.661, 4.272, 12.085, 1.831, 26.275, -0.389, -0.832, 0.188, -11.597, -2.686, 0.122, 24.115, -0.295, 0.806, -0.587, 52.856, -30.334, -14.099, 22.162, 26.530, 20.710
28208, 0.708, -0.145, 0.664, 3.723, 9.338, 0.854, 26.283, -0.395, -0.815, 0.194, -2.686, 1.953, 0.122, 24.133, -0.248, 0.770, -0.631, 43.030, -14.893, -2.686, 22.162, 25.690, 20.710
28243, 0.713, -0.151, 0.667, 5.554, 5.798, 1.160, 26.286, -0.425, -0.796, 0.218, -2.808, -2.502, 2.197, 24.133, -0.306, 0.783, -0.592, 9.399, 7.935, -0.305, 22.171, 25.690, 20.670
28276, 0.723, -0.138, 0.652, 8.301, 1.953, 4.456, 26.272, -0.417, -0.814, 0.216, -6.042, -7.629, 3.235, 24.100, -0.251, 0.773, -0.528, 0.793, 13.672, 1.038, 22.177, 25.690, 20.670
28309, 0.751, -0.131, 0.652, 6.165, -0.488, 6.836, 26.280, -0.437, -0.823, 0.223, -1.160, -8.240, 3.235, 24.115, -0.292, 0.762, -0.502, 2.930, 5.798, -8.667, 22.150, 25.190, 20.670
28344, 0.773, -0.125, 0.646, 4.028, -2.625, 9.521, 26.292, -0.455, -0.836, 0.253, -0.488, -10.742, 1.709, 24.127, -0.334, 0.767, -0.474, 6.836, 6.714, -14.404, 22.159, 25.190, 20.670
28377, 0.794, -0.158, 0.646, -0.183, -3.906, 12.756, 26.313, -0.431, -0.840, 0.263, 2.136, -13.428, -0.610, 24.145, -0.388, 0.761, -0.485, 12.390, 0.610, -17.822, 22.180, 25.190, 20.670
28410, 0.798, -0.188, 0.632, -3.296, -4.333, 12.146, 26.304, -0.402, -0.852, 0.288, 3.723, -12.939, -1.709, 24.130, -0.427, 0.765, -0.493, 14.771, -5.981, -20.142, 22.168, 25.190, 20.670
28445, 0.808, -0.231, 0.647, -4.578, -2.991, 10.010, 26.263, -0.391, -0.848, 0.304, 7.751, -9.827, -1.587, 24.130, -0.467, 0.784, -0.537, 17.944, -2.991, -13.000, 22.177, 25.190, 20.650
28478, 0.808, -0.227, 0.635, -2.869, -4.578, 5.310, 26.275, -0.392, -0.836, 0.311, 6.897, -6.531, 1.099, 24.136, -0.445, 0.777, -0.548, 15.381, -4.700, -10.437, 22.156, 25.190, 20.650
28513, 0.813, -0.208, 0.630, -1.526, -5.066, 1.892, 26.298, -0.421, -0.833, 0.300, 5.066, -2.563, 4.517, 24.118, -0.416, 0.772, -0.526, 5.432, -5.676, -6.897, 22.150, 25.110, 20.650
28546, 0.793, -0.179, 0.618, -3.906, -4.028, 2.563, 26.310, -0.424, -0.823, 0.305, 5.981, -4.211, 2.686, 24.139, -0.416, 0.734, -0.501, 5.310, -2.380, -6.531, 22.156, 25.110, 20.710
28579, 0.825, -0.220, 0.604, -3.479, -2.808, 2.014, 26.275, -0.406, -0.816, 0.324, 8.850, -1.465, -2.808, 24.130, -0.459, 0.755, -0.515, 9.460, 4.761, -5.554, 22.168, 25.170, 20.710
28614, 0.823, -0.226, 0.612, -2.930, -0.549, 0.610, 26.272, -0.409, -0.824, 0.347, 4.883, 0.671, -2.197, 24.148, -0.471, 0.746, -0.500, 2.747, 4.211, 1.038, 22.153, 25.170, 20.710
28647, 0.832, -0.232, 0.608, -3.174, -1.099, 0.000, 26.292, -0.399, -0.837, 0.349, 3.113, 0.183, 2.441, 24.130, -0.476, 0.749, -0.488, 8.606, 2.747, -1.465, 22.165, 25.170, 20.710
28680, 0.868, -0.233, 0.600, -4.639, -0.244, -1.099, 26.286, -0.425, -0.848, 0.374, 3.845, 1.465, 1.526, 24.136, -0.495, 0.765, -0.473, 13.123, -4.272, -3.906, 22.177, 25.250, 20.710
28715, 0.879, -0.249, 0.600, -6.958, 1.953, -1.465, 26.278, -0.430, -0.843, 0.386, 5.066, 4.639, -4.517, 24.145, -0.521, 0.770, -0.479, 18.127, -2.014, -3.601, 22.147, 25.250, 20.710
28748, 0.874, -0.250, 0.599, -7.507, 2.808, -2.869, 26.280, -0.417, -0.848, 0.397, 3.357, 5.005, -4.517, 24.145, -0.507, 0.766, -0.521, 16.113, -3.723, -3.601, 22.165, 25.250, 20.710
28781, 0.853, -0.252, 0.608, -7.202, 2.136, -2.136, 26.286, -0.417, -0.840, 0.380, 2.502, 4.883, -1.160, 24.136, -0.489, 0.763, -0.524, 16.296, -5.127, 0.000, 22.168, 25.250, 20.710
28816, 0.840, -0.234, 0.603, -5.432, 1.465, -2.441, 26.301, -0.422, -0.821, 0.358, 3.174, 4.333, -0.732, 24.154, -0.447, 0.757, -0.530, 14.465, -1.892, 1.648, 22.165, 25.250, 20.710
28849, 0.835, -0.226, 0.596, -4.761, 1.892, -0.793, 26.269, -0.419, -0.820, 0.357, 0.549, 2.625, 0.549, 24.160, -0.461, 0.733, -0.513, 8.057, 6.104, -0.427, 22.171, 25.250, 20.710
28882, 0.819, -0.231, 0.599, -5.005, 2.625, -0.061, 26.289, -0.401, -0.825, 0.334, -3.601, 1.526, 2.319, 24.154, -0.484, 0.713, -0.502, 5.493, 7.690, -1.648, 22.198, 25.350, 20.710
28917, 0.794, -0.223, 0.618, -4.517, 3.052, -0.977, 26.292, -0.406, -0.828, 0.312, -1.770, 3.540, 1.892, 24.133, -0.467, 0.716, -0.510, 11.230, 1.160, -3.174, 22.186, 25.350, 20.670
28950, 0.792, -0.221, 0.613, -3.845, 3.784, -1.465, 26.289, -0.409, -0.823, 0.304, 0.854, 3.662, -2.136, 24.139, -0.419, 0.720, -0.542, 17.761, 4.456, 0.183, 22.171, 25.350, 20.670
28985, 0.791, -0.210, 0.625, -4.089, 4.700, -0.916, 26.283, -0.411, -0.828, 0.296, 0.000, 4.517, -3.662, 24.130, -0.425, 0.707, -0.546, 9.521, 5.859, -3.662, 22.144, 25.430, 20.670
