millis,acc_x_c,acc_y_c,acc_z_c,gyro_x_c,gyro_y_c,gyro_z_c,imu_temp_c,acc_x_l,acc_y_l,acc_z_l,gyro_x_l,gyro_y_l,gyro_z_l,imu_temp_l,acc_x_r,acc_y_r,acc_z_r,gyro_x_r,gyro_y_r,gyro_z_r,imu_temp_r,obj_temp,amb_temp
149975, 0.995, -0.289, 0.126, -0.916, 0.488, -1.465, 25.151, -0.497, -0.540, 0.673, 2.319, 0.854, 0.793, 21.857, -0.310, 0.831, -0.494, 5.859, 3.784, -0.610, 21.680, 22.290, 20.710
150008, 0.989, -0.266, 0.146, -0.549, 2.380, 0.427, 25.142, -0.511, -0.522, 0.669, 1.038, 2.502, 1.343, 21.872, -0.319, 0.829, -0.484, 6.714, 4.395, -0.671, 21.701, 22.290, 20.670
150041, 0.990, -0.273, 0.142, -1.587, 2.563, 1.282, 25.142, -0.505, -0.533, 0.664, -2.747, 1.770, 1.221, 21.902, -0.330, 0.844, -0.504, 9.216, 3.479, 0.488, 21.692, 22.290, 20.670
150076, 0.985, -0.286, 0.160, -2.014, 0.916, -0.854, 25.145, -0.502, -0.554, 0.659, -3.052, 0.732, 0.732, 21.878, -0.306, 0.839, -0.516, 6.653, 0.793, -1.953, 21.695, 22.230, 20.670
150109, 1.009, -0.278, 0.127, -0.549, 2.686, -0.671, 25.145, -0.495, -0.540, 0.669, 0.122, 3.784, -0.122, 21.872, -0.339, 0.837, -0.486, 6.592, 3.296, 0.793, 21.677, 22.230, 20.730
150142, 0.969, -0.269, 0.167, -2.014, 1.526, 1.343, 25.142, -0.515, -0.540, 0.654, -0.183, 0.488, 1.648, 21.854, -0.307, 0.821, -0.504, 6.470, 6.104, 2.197, 21.692, 22.230, 20.730
150178, 0.961, -0.276, 0.105, -4.517, 1.160, 10.559, 25.145, -0.498, -0.529, 0.669, -1.709, 5.432, -0.793, 21.875, -0.304, 0.797, -0.455, 7.507, 17.578, 10.315, 21.689, 22.310, 20.730
150211, 0.953, -0.305, 0.142, -5.066, 0.244, 10.010, 25.151, -0.484, -0.547, 0.646, -2.075, 1.526, 2.441, 21.878, -0.319, 0.835, -0.532, 12.268, -7.202, 5.066, 21.689, 22.310, 20.710
150244, 0.909, -0.359, 0.139, 5.737, 4.639, -22.522, 25.130, -0.453, -0.549, 0.650, 7.507, -5.676, -2.991, 21.890, -0.353, 0.985, -0.705, 2.808, -6.165, -35.217, 21.698, 22.310, 20.710
150279, 0.949, -0.252, 0.145, -0.549, -0.061, -5.554, 25.136, -0.508, -0.546, 0.665, 4.028, 0.488, 5.371, 21.872, -0.307, 0.868, -0.457, 3.906, 15.808, 5.066, 21.692, 22.250, 20.710
150312, 1.018, -0.251, 0.120, 3.296, -1.099, -0.732, 25.154, -0.519, -0.506, 0.660, 4.333, -1.343, 2.808, 21.884, -0.337, 0.828, -0.471, 9.033, 14.221, -4.578, 21.689, 22.250, 20.730
150345, 0.978, -0.241, 0.147, 0.854, 3.174, 1.160, 25.136, -0.511, -0.523, 0.649, 3.845, 3.357, -1.282, 21.875, -0.338, 0.833, -0.474, 8.728, 11.047, 2.136, 21.683, 22.250, 20.730
150381, 0.977, -0.267, 0.143, -1.709, 0.610, -0.366, 25.133, -0.504, -0.516, 0.651, 1.404, -0.122, -0.244, 21.890, -0.300, 0.838, -0.496, 8.362, 4.639, 0.183, 21.692, 22.290, 20.730
150414, 0.991, -0.264, 0.127, -0.610, 3.784, 0.366, 25.139, -0.504, -0.522, 0.666, 3.174, 2.197, -3.296, 21.875, -0.304, 0.822, -0.466, 7.568, 5.371, -1.282, 21.698, 22.290, 20.730
150449, 0.968, -0.269, 0.140, -0.366, 2.686, 2.930, 25.142, -0.501, -0.511, 0.645, 2.441, -0.488, -1.648, 21.887, -0.311, 0.820, -0.493, 9.949, 7.141, -1.160, 21.683, 22.290, 20.730
150482, 0.983, -0.271, 0.137, -1.465, 6.592, 1.709, 25.139, -0.492, -0.532, 0.657, 3.174, 5.127, -4.395, 21.887, -0.344, 0.828, -0.493, 8.240, 1.343, 2.258, 21.692, 22.290, 20.730
150515, 0.975, -0.275, 0.172, -3.967, 3.235, -0.183, 25.127, -0.505, -0.533, 0.646, 2.502, 2.014, -4.700, 21.869, -0.312, 0.827, -0.511, 9.338, 1.892, 4.333, 21.686, 22.290, 20.730
150551, 1.000, -0.289, 0.088, -1.770, 11.292, 0.854, 25.115, -0.489, -0.536, 0.682, 8.362, 10.986, -10.315, 21.896, -0.333, 0.827, -0.475, 11.536, 3.113, 6.470, 21.704, 22.290, 20.730
150582, 0.955, -0.256, 0.205, -2.686, 9.705, 4.517, 25.154, -0.507, -0.540, 0.641, 4.883, 8.240, -7.446, 21.908, -0.322, 0.816, -0.530, 14.893, 4.517, 8.240, 21.704, 22.290, 20.730
150614, 0.974, -0.322, 0.160, -3.357, 2.319, -1.404, 25.148, -0.477, -0.549, 0.647, 2.258, 0.122, -6.653, 21.875, -0.249, 0.844, -0.538, 7.812, 4.578, 2.808, 21.695, 22.290, 20.710
150648, 0.958, -0.280, 0.186, -0.488, 2.136, -1.526, 25.142, -0.486, -0.544, 0.643, 5.127, 0.671, -4.333, 21.878, -0.295, 0.829, -0.528, 4.028, 2.747, -2.930, 21.695, 22.250, 20.710
150680, 0.973, -0.288, 0.165, -0.305, -0.305, -4.211, 25.157, -0.481, -0.535, 0.662, 7.141, -2.625, -3.784, 21.911, -0.318, 0.833, -0.525, 2.869, 4.700, -2.502, 21.689, 22.250, 20.710
150712, 0.974, -0.301, 0.146, -0.671, -3.296, -5.554, 25.139, -0.475, -0.539, 0.672, 4.089, -7.446, -4.272, 21.902, -0.304, 0.830, -0.521, 0.793, 2.197, -4.639, 21.689, 22.250, 20.710
150746, 0.989, -0.277, 0.153, 0.122, -3.906, -4.578, 25.136, -0.470, -0.538, 0.662, 6.531, -3.418, -4.395, 21.902, -0.319, 0.805, -0.483, 0.732, 2.686, -2.747, 21.701, 22.230, 20.710
150778, 1.005, -0.262, 0.104, 1.526, 2.747, -1.526, 25.145, -0.486, -0.517, 0.688, 12.634, 5.737, -1.953, 21.917, -0.330, 0.812, -0.449, 4.150, 5.310, 0.732, 21.704, 22.230, 20.710
150810, 1.006, -0.229, 0.184, 1.709, -0.183, 1.831, 25.148, -0.506, -0.502, 0.661, 5.249, 1.343, 1.465, 21.896, -0.292, 0.834, -0.477, 9.888, 7.019, 1.465, 21.683, 22.230, 20.750
150844, 1.050, -0.295, 0.145, -0.244, 3.357, -3.479, 25.133, -0.474, -0.502, 0.691, 3.296, 6.775, -2.747, 21.890, -0.321, 0.834, -0.501, 2.319, 0.610, -1.038, 21.689, 22.250, 20.750
150876, 0.953, -0.201, 0.226, -2.747, -0.793, 5.249, 25.157, -0.535, -0.527, 0.655, 3.540, 0.366, 2.441, 21.884, -0.247, 0.802, -0.457, 4.517, 4.395, -1.526, 21.674, 22.250, 20.750
150910, 1.033, -0.294, 0.086, 0.305, 3.662, 1.343, 25.148, -0.471, -0.514, 0.692, 10.132, 2.625, -6.042, 21.917, -0.340, 0.844, -0.492, 7.629, -0.427, -2.075, 21.689, 22.250, 20.730
150942, 0.976, -0.265, 0.113, 0.427, 11.047, 4.211, 25.160, -0.476, -0.513, 0.686, 9.338, 14.160, -10.986, 21.887, -0.338, 0.794, -0.456, 10.620, -3.418, 4.150, 21.680, 22.290, 20.730
150974, 0.955, -0.270, 0.200, -1.465, 5.432, 4.150, 25.154, -0.497, -0.515, 0.672, 5.920, 0.671, -1.709, 21.902, -0.296, 0.832, -0.507, 12.268, 4.456, 0.854, 21.707, 22.290, 20.730
151008, 0.993, -0.282, 0.146, -1.221, 2.869, 3.479, 25.142, -0.472, -0.519, 0.683, 1.404, 1.282, -4.700, 21.902, -0.330, 0.848, -0.505, 8.972, 3.784, -0.549, 21.680, 22.290, 20.750
151040, 0.988, -0.296, 0.124, -1.038, 6.958, 1.160, 25.139, -0.469, -0.527, 0.686, 3.479, 5.859, -6.958, 21.890, -0.333, 0.816, -0.486, 10.620, -2.563, 4.883, 21.689, 22.250, 20.750
151072, 0.962, -0.279, 0.179, -1.770, 0.977, 1.709, 25.142, -0.474, -0.532, 0.671, 6.592, -1.526, -4.395, 21.878, -0.279, 0.817, -0.512, 9.216, 4.883, 1.709, 21.701, 22.250, 20.750
151106, 1.033, -0.295, 0.117, 0.488, 1.587, 2.136, 25.142, -0.456, -0.515, 0.695, 7.629, 0.061, -4.089, 21.908, -0.301, 0.852, -0.499, 4.578, 2.075, -3.601, 21.698, 22.250, 20.710
151138, 0.805, -0.123, 0.081, 8.972, -4.150, 32.410, 25.142, -0.520, -0.500, 0.699, -5.859, 38.147, 2.319, 21.914, -0.302, 0.651, -0.360, 16.602, 52.734, 44.556, 21.695, 22.250, 20.710
151170, 0.956, -0.391, 0.179, -0.854, 6.409, -19.592, 25.166, -0.431, -0.515, 0.660, 9.155, -15.320, -10.498, 21.923, -0.392, 0.854, -0.628, -3.784, -48.706, -33.569, 21.695, 22.230, 20.710
151204, 0.985, -0.233, 0.124, -2.197, 8.118, -0.793, 25.142, -0.474, -0.527, 0.687, 0.244, 10.620, -4.456, 21.899, -0.324, 0.845, -0.465, 6.287, 0.549, 15.442, 21.692, 22.230, 20.710
151236, 0.964, -0.295, 0.216, -1.953, 1.953, 5.188, 25.151, -0.501, -0.520, 0.675, 3.418, 3.601, -0.488, 21.917, -0.252, 0.760, -0.497, 8.484, 7.324, 3.174, 21.707, 22.230, 20.710
151266, 0.927, -0.294, 0.129, -3.357, 0.916, 18.982, 25.154, -0.494, -0.502, 0.697, 6.042, -1.099, 1.465, 21.890, -0.274, 0.940, -0.522, 27.100, 34.424, 14.221, 21.695, 22.250, 20.710
151299, 1.021, -0.312, 0.193, -2.319, 1.343, 2.502, 25.166, -0.479, -0.504, 0.664, 0.366, 2.869, -3.540, 21.890, -0.344, 0.797, -0.512, 5.493, -2.930, 4.822, 21.704, 22.250, 20.730
151331, 0.927, -0.255, 0.160, -0.854, -3.906, 10.498, 25.157, -0.512, -0.518, 0.688, 1.892, 2.014, 2.014, 21.905, -0.260, 0.859, -0.490, 18.066, 25.085, 5.798, 21.701, 22.250, 20.730
151365, 0.979, -0.388, 0.151, 2.930, 6.348, -21.606, 25.166, -0.432, -0.521, 0.671, 7.690, -2.869, -9.033, 21.896, -0.362, 0.910, -0.665, -1.831, -19.775, -35.583, 21.719, 22.250, 20.730
151398, 0.957, -0.260, 0.162, 1.831, 2.380, -8.118, 25.157, -0.483, -0.514, 0.702, 1.221, 0.854, 2.808, 21.911, -0.292, 0.839, -0.462, 11.536, 14.526, 5.127, 21.701, 22.250, 20.730
151430, 0.998, -0.285, 0.112, 1.953, 3.235, 2.258, 25.151, -0.479, -0.489, 0.688, -6.531, -0.122, 8.301, 21.899, -0.346, 0.804, -0.501, 12.817, 11.536, 1.038, 21.719, 22.250, 20.730
151464, 0.964, -0.294, 0.178, -0.549, 4.211, -2.075, 25.145, -0.480, -0.530, 0.671, -7.263, 3.479, 3.784, 21.911, -0.312, 0.792, -0.502, 6.470, 7.080, 6.104, 21.707, 22.290, 20.730
151496, 0.937, -0.289, 0.139, -0.793, 3.174, 0.488, 25.157, -0.490, -0.511, 0.685, -2.563, 0.122, 3.052, 21.872, -0.231, 0.826, -0.500, 9.155, 18.005, 3.418, 21.695, 22.290, 20.750
151528, 0.965, -0.310, 0.166, -1.709, 2.014, -0.732, 25.151, -0.470, -0.525, 0.654, -2.441, 0.610, -2.014, 21.908, -0.286, 0.834, -0.562, 6.714, -2.502, -1.526, 21.716, 22.290, 20.750
151563, 0.973, -0.297, 0.173, -1.770, 3.235, -3.723, 25.148, -0.478, -0.537, 0.677, 4.272, 3.296, -2.502, 21.884, -0.299, 0.809, -0.510, 3.967, 2.380, 1.404, 21.707, 22.250, 20.750
151595, 0.986, -0.300, 0.147, -0.916, 1.892, -0.610, 25.142, -0.489, -0.509, 0.706, 2.747, 2.808, -1.709, 21.911, -0.259, 0.823, -0.497, 5.859, 7.080, 1.160, 21.698, 22.250, 20.710
151627, 0.967, -0.287, 0.193, -1.831, 2.747, 0.854, 25.166, -0.478, -0.525, 0.666, -3.967, -0.061, 0.671, 21.869, -0.302, 0.831, -0.543, 6.470, -1.770, -3.052, 21.725, 22.250, 20.710
151661, 0.985, -0.291, 0.164, -0.488, 1.648, -2.808, 25.142, -0.486, -0.536, 0.681, -1.648, 3.235, 3.235, 21.887, -0.291, 0.829, -0.507, 3.418, 3.784, -0.122, 21.707, 22.190, 20.710
151693, 0.968, -0.285, 0.182, -0.854, -1.404, -1.404, 25.145, -0.492, -0.531, 0.670, 1.404, -1.404, 0.610, 21.884, -0.279, 0.824, -0.534, 6.470, 5.554, -2.747, 21.710, 22.190, 20.750
151728, 0.966, -0.308, 0.157, -0.671, -2.197, -3.601, 25.166, -0.470, -0.523, 0.679, 3.174, -2.991, -3.418, 21.902, -0.280, 0.836, -0.530, 2.563, 2.869, -5.554, 21.701, 22.190, 20.750
151760, 0.980, -0.288, 0.157, 1.465, -0.122, -2.502, 25.160, -0.469, -0.512, 0.688, 3.113, -0.305, 0.305, 21.884, -0.294, 0.818, -0.512, 2.197, 4.211, -5.615, 21.722, 22.250, 20.750
151792, 0.980, -0.279, 0.152, 1.892, 0.061, -1.648, 25.151, -0.486, -0.519, 0.691, -2.197, -1.831, 5.493, 21.920, -0.309, 0.824, -0.504, 4.456, 4.883, -4.150, 21.695, 22.250, 20.710
151826, 0.968, -0.279, 0.173, 0.244, -1.648, -1.709, 25.148, -0.485, -0.525, 0.673, -2.808, -5.371, 3.479, 21.902, -0.311, 0.819, -0.505, 4.211, 4.456, -5.066, 21.713, 22.250, 20.710
151858, 0.993, -0.296, 0.128, 0.549, 0.671, -1.953, 25.151, -0.478, -0.519, 0.690, 1.343, -2.625, 0.244, 21.914, -0.300, 0.824, -0.491, 4.272, 5.432, -3.845, 21.710, 22.230, 20.710
151891, 0.981, -0.274, 0.157, 0.427, 1.831, 0.549, 25.133, -0.485, -0.525, 0.682, -0.793, -1.038, -1.892, 21.905, -0.309, 0.820, -0.507, 6.836, 3.662, -3.052, 21.695, 22.230, 20.730
151925, 0.973, -0.290, 0.158, -0.732, 1.648, 0.610, 25.151, -0.470, -0.528, 0.679, 0.854, -0.916, -3.784, 21.917, -0.301, 0.826, -0.512, 6.470, 3.296, -2.747, 21.695, 22.230, 20.730
151957, 0.979, -0.288, 0.157, 0.305, 0.488, -1.099, 25.145, -0.468, -0.519, 0.683, -1.038, -0.610, -1.526, 21.899, -0.354, 0.815, -0.502, 5.676, 7.507, -0.610, 21.710, 22.230, 20.730
151989, 0.970, -0.275, 0.152, 0.000, -1.160, -0.793, 25.169, -0.461, -0.515, 0.686, -6.714, -1.526, 2.869, 21.893, -0.300, 0.815, -0.493, 7.690, 11.047, 1.953, 21.722, 22.230, 20.750
152023, 0.971, -0.281, 0.153, -0.610, -0.854, 0.122, 25.160, -0.477, -0.526, 0.669, -4.333, -1.892, 4.822, 21.881, -0.273, 0.833, -0.510, 5.554, 3.479, -1.465, 21.725, 22.230, 20.750
152056, 0.974, -0.276, 0.151, 0.305, -0.793, -0.427, 25.133, -0.470, -0.523, 0.674, 0.366, -1.770, 1.343, 21.923, -0.309, 0.825, -0.498, 3.662, 2.441, -3.906, 21.713, 22.230, 20.750
152089, 0.980, -0.269, 0.150, 0.061, -1.160, -0.122, 25.160, -0.472, -0.521, 0.670, 1.465, -0.793, 3.662, 21.931, -0.310, 0.819, -0.487, 5.371, 4.028, -1.587, 21.716, 22.230, 20.710
152124, 0.979, -0.271, 0.148, -1.160, -0.549, 0.549, 25.139, -0.483, -0.522, 0.672, 1.953, -0.061, 2.808, 21.914, -0.299, 0.827, -0.495, 6.287, 2.441, -2.686, 21.716, 22.230, 20.710
152157, 0.981, -0.272, 0.146, -1.404, -0.305, 0.366, 25.148, -0.478, -0.523, 0.680, 2.869, -0.183, 0.366, 21.937, -0.314, 0.825, -0.501, 6.226, 1.831, -3.174, 21.713, 22.230, 20.710
152192, 0.985, -0.280, 0.142, -1.343, 0.305, 0.061, 25.151, -0.478, -0.515, 0.687, 1.160, -0.488, -0.305, 21.902, -0.326, 0.826, -0.499, 6.897, 3.662, -0.916, 21.701, 22.230, 20.710
152225, 0.984, -0.283, 0.146, -1.587, 0.916, 0.183, 25.142, -0.472, -0.524, 0.690, 0.366, 0.671, -1.404, 21.914, -0.314, 0.836, -0.507, 7.446, 4.456, 0.122, 21.722, 22.230, 20.710
152258, 0.986, -0.283, 0.144, -1.221, 1.343, -0.305, 25.166, -0.472, -0.517, 0.691, -2.625, 0.366, 1.709, 21.923, -0.312, 0.834, -0.505, 6.836, 4.272, 0.366, 21.713, 22.230, 20.710
152293, 0.992, -0.284, 0.146, -0.977, 1.709, -0.549, 25.175, -0.485, -0.526, 0.691, -2.869, -0.366, 3.113, 21.929, -0.321, 0.837, -0.504, 6.226, 4.150, 0.244, 21.734, 22.230, 20.730
152326, 0.986, -0.275, 0.149, -1.038, 1.709, -0.732, 25.139, -0.477, -0.524, 0.682, -7.324, -0.610, 2.136, 21.929, -0.322, 0.830, -0.498, 7.141, 6.409, 2.136, 21.728, 22.230, 20.730
152359, 0.987, -0.276, 0.147, -1.709, 1.709, -0.610, 25.136, -0.479, -0.518, 0.691, -15.808, -1.892, 5.676, 21.908, -0.297, 0.833, -0.508, 7.935, 6.287, 2.319, 21.728, 22.230, 20.730
152394, 0.983, -0.283, 0.146, -1.343, 0.977, -0.183, 25.172, -0.468, -0.541, 0.660, -21.729, -1.648, 13.428, 21.934, -0.290, 0.835, -0.507, 6.714, 3.479, -0.122, 21.725, 22.230, 20.750
152427, 0.987, -0.282, 0.146, -0.732, 1.343, -0.366, 25.151, -0.491, -0.564, 0.651, -8.240, -0.244, 10.071, 21.937, -0.309, 0.830, -0.507, 6.042, 1.160, -1.892, 21.713, 22.230, 20.750
152460, 0.987, -0.271, 0.150, -1.038, 2.014, -0.122, 25.133, -0.491, -0.542, 0.669, -4.639, 1.587, -0.305, 21.958, -0.326, 0.819, -0.493, 7.019, 4.272, 0.000, 21.713, 22.230, 20.750
152495, 0.985, -0.281, 0.145, -1.770, 2.258, 0.732, 25.154, -0.484, -0.542, 0.678, -9.583, 1.221, 3.113, 21.934, -0.308, 0.833, -0.508, 9.338, 6.287, 2.075, 21.716, 22.230, 20.750
152528, 0.977, -0.291, 0.149, -1.038, 2.075, 0.488, 25.157, -0.457, -0.545, 0.650, -13.672, -1.221, 13.245, 21.940, -0.293, 0.829, -0.519, 8.545, 4.395, 0.305, 21.740, 22.190, 20.750
152561, 0.977, -0.292, 0.148, 0.122, 1.892, 0.122, 25.172, -0.483, -0.567, 0.646, -5.371, -0.427, 16.846, 21.934, -0.299, 0.825, -0.518, 6.287, 3.052, -1.404, 21.731, 22.190, 20.730
152596, 0.977, -0.282, 0.152, 0.366, 1.831, -0.122, 25.145, -0.501, -0.549, 0.645, 0.610, 1.038, 6.531, 21.940, -0.332, 0.812, -0.500, 6.165, 4.211, -0.183, 21.719, 22.190, 20.730
152629, 0.974, -0.283, 0.145, -0.671, 1.770, -0.366, 25.154, -0.479, -0.544, 0.646, 0.916, 1.160, 3.113, 21.934, -0.318, 0.817, -0.499, 9.155, 8.545, 3.723, 21.716, 22.230, 20.730
152664, 0.978, -0.289, 0.153, -1.404, 1.465, -0.366, 25.133, -0.497, -0.550, 0.646, 3.357, 1.221, 4.517, 21.958, -0.282, 0.831, -0.523, 8.423, 4.211, 1.587, 21.728, 22.230, 20.730
152696, 0.976, -0.288, 0.151, -1.221, 2.014, -0.732, 25.160, -0.490, -0.549, 0.644, 7.507, 1.953, -3.052, 21.952, -0.285, 0.829, -0.520, 5.615, 1.709, -2.075, 21.743, 22.230, 20.730
152729, 0.982, -0.285, 0.152, -1.099, 2.014, -1.221, 25.142, -0.484, -0.541, 0.658, 9.583, 2.197, -3.235, 21.902, -0.327, 0.822, -0.506, 4.822, 0.427, -1.892, 21.722, 22.230, 20.730
152764, 0.984, -0.278, 0.145, -1.343, 1.404, -1.892, 25.157, -0.497, -0.535, 0.661, 5.676, 2.136, -0.916, 21.937, -0.310, 0.821, -0.501, 6.958, 4.272, 2.014, 21.722, 22.230, 20.770
152797, 0.982, -0.280, 0.152, -1.526, 2.136, -1.099, 25.166, -0.495, -0.536, 0.659, 3.906, 2.014, -0.549, 21.937, -0.286, 0.835, -0.510, 5.615, 0.977, -0.244, 21.731, 22.230, 20.770
152830, 0.990, -0.284, 0.149, -1.160, 2.808, -1.343, 25.139, -0.499, -0.542, 0.665, 5.981, 1.465, -2.563, 21.958, -0.313, 0.833, -0.514, 5.371, 0.244, -1.831, 21.743, 22.250, 20.770
152865, 0.989, -0.277, 0.148, -1.465, 3.784, -1.221, 25.178, -0.498, -0.545, 0.654, 12.573, 2.991, -8.911, 21.952, -0.311, 0.831, -0.504, 6.287, -0.916, -0.916, 21.722, 22.250, 20.710
152898, 0.990, -0.285, 0.151, -1.831, 4.822, -1.526, 25.139, -0.491, -0.517, 0.691, 13.855, 2.136, -12.207, 21.955, -0.314, 0.830, -0.504, 6.470, -0.305, -0.305, 21.731, 22.250, 20.710
152931, 0.988, -0.279, 0.151, -0.488, 5.005, -1.221, 25.151, -0.488, -0.526, 0.677, 2.136, 3.174, -11.292, 21.973, -0.307, 0.829, -0.501, 7.446, 0.549, -0.427, 21.746, 22.190, 20.710
152966, 0.981, -0.264, 0.154, -0.305, 4.944, -1.160, 25.160, -0.482, -0.516, 0.674, -3.235, 1.587, -3.418, 21.952, -0.327, 0.819, -0.484, 6.897, 0.854, 0.061, 21.734, 22.190, 20.710
152999, 0.962, -0.266, 0.145, 0.366, 2.319, -1.099, 25.145, -0.484, -0.524, 0.650, -8.301, 2.258, 2.991, 21.952, -0.325, 0.828, -0.486, 7.751, 1.709, 0.488, 21.749, 22.190, 20.710
153032, 1.026, -0.237, 0.175, 2.075, -1.587, -1.160, 25.148, -0.500, -0.531, 0.651, -3.601, 1.953, 4.089, 21.952, -0.312, 0.829, -0.468, 7.568, 2.991, 0.977, 21.710, 22.190, 20.710
153067, 0.997, -0.226, 0.161, -4.211, 3.418, -1.709, 25.169, -0.532, -0.541, 0.630, 2.625, 4.395, 1.038, 21.937, -0.342, 0.820, -0.455, 12.451, 1.282, 0.977, 21.761, 22.190, 20.710
153100, 0.997, -0.247, 0.141, -9.460, 8.728, -1.770, 25.118, -0.503, -0.517, 0.681, -1.404, 5.371, -6.775, 21.926, -0.353, 0.803, -0.458, 18.616, 3.601, 4.211, 21.734, 22.190, 20.710
153135, 0.978, -0.255, 0.156, -10.437, 10.376, 2.258, 25.172, -0.494, -0.532, 0.655, -6.042, 5.920, -3.906, 21.973, -0.305, 0.836, -0.498, 24.109, 5.005, 5.981, 21.749, 22.190, 20.710
153168, 0.988, -0.274, 0.162, -11.780, 9.888, 0.916, 25.148, -0.502, -0.547, 0.644, -5.188, 6.287, -5.005, 21.976, -0.380, 0.810, -0.512, 21.240, 11.230, 14.099, 21.734, 22.190, 20.730
153201, 0.969, -0.269, 0.153, -13.000, 9.583, 1.282, 25.166, -0.500, -0.553, 0.646, -1.282, 10.010, -11.475, 21.961, -0.275, 0.797, -0.495, 37.292, 13.611, 24.414, 21.755, 22.190, 20.730
153236, 0.976, -0.285, 0.171, -14.954, 10.925, 5.310, 25.148, -0.476, -0.561, 0.654, -2.563, 6.714, -7.629, 21.964, -0.225, 0.825, -0.585, 36.255, 4.456, 19.226, 21.749, 22.230, 20.730
153269, 0.982, -0.326, 0.180, -13.733, 11.963, 3.601, 25.157, -0.478, -0.573, 0.642, 1.526, 5.676, -4.211, 21.955, -0.283, 0.836, -0.618, 28.870, -0.183, 17.517, 21.737, 22.230, 20.750
153302, 1.002, -0.295, 0.188, -9.155, 8.850, 0.366, 25.145, -0.494, -0.572, 0.640, 5.127, 8.850, -4.761, 21.991, -0.281, 0.796, -0.602, 23.010, 12.756, 19.836, 21.740, 22.230, 20.750
153337, 0.977, -0.308, 0.171, -9.155, 8.240, -3.784, 25.157, -0.498, -0.578, 0.656, 5.920, 10.193, -7.935, 21.931, -0.290, 0.786, -0.626, 30.334, 30.151, 15.991, 21.755, 22.250, 20.750
153370, 0.982, -0.290, 0.182, -11.108, 9.827, -1.526, 25.151, -0.494, -0.567, 0.651, 7.385, 7.935, -9.094, 21.967, -0.236, 0.792, -0.614, 24.475, 5.066, 10.376, 21.761, 22.250, 20.750
153403, 0.974, -0.300, 0.182, -9.583, 8.423, -1.831, 25.145, -0.481, -0.560, 0.645, 3.418, 7.812, -6.165, 21.964, -0.246, 0.791, -0.607, 23.682, 10.986, 11.047, 21.752, 22.250, 20.750
153438, 0.976, -0.292, 0.190, -9.216, 8.728, -1.465, 25.142, -0.479, -0.563, 0.635, 3.052, 6.958, 1.404, 21.952, -0.285, 0.791, -0.605, 21.667, 13.000, 12.634, 21.749, 22.250, 20.750
153471, 0.970, -0.287, 0.177, -7.874, 7.202, -4.333, 25.160, -0.490, -0.552, 0.629, 7.935, 6.775, 1.343, 21.970, -0.249, 0.761, -0.595, 30.640, 18.250, 17.700, 21.749, 22.250, 20.750
153513, 0.965, -0.263, 0.190, -9.827, 8.423, -2.930, 25.169, -0.505, -0.551, 0.620, 12.512, 10.071, -5.493, 21.979, -0.189, 0.782, -0.634, 20.020, 15.198, 21.912, 21.749, 22.230, 20.750
153545, 0.965, -0.269, 0.199, -12.207, 8.484, -3.235, 25.139, -0.518, -0.549, 0.624, 16.235, 12.817, -14.771, 21.967, -0.160, 0.765, -0.621, 12.512, 20.020, 21.545, 21.743, 22.230, 20.750
153578, 0.937, -0.280, 0.187, -12.268, 7.629, -1.709, 25.169, -0.483, -0.523, 0.646, 18.127, 8.972, -14.526, 21.982, -0.147, 0.778, -0.623, 13.916, -10.864, 13.672, 21.758, 22.230, 20.750
153612, 0.956, -0.289, 0.191, -11.169, 6.897, 0.427, 25.157, -0.479, -0.538, 0.645, 10.437, 9.583, -9.338, 21.982, -0.160, 0.779, -0.644, 10.498, -7.141, 5.310, 21.755, 22.250, 20.750
153644, 0.983, -0.304, 0.208, -8.850, 4.333, -1.282, 25.166, -0.491, -0.566, 0.668, 12.146, 6.531, -9.705, 21.967, -0.266, 0.762, -0.681, 10.559, 22.095, 15.808, 21.743, 22.250, 20.750
153676, 0.943, -0.289, 0.187, -7.629, 0.671, -3.967, 25.139, -0.482, -0.539, 0.625, 11.292, 4.333, -16.785, 21.979, -0.165, 0.744, -0.648, 4.456, 16.357, 24.902, 21.758, 22.250, 20.750
153710, 0.948, -0.284, 0.196, -8.362, 0.793, -1.953, 25.160, -0.473, -0.539, 0.639, 13.000, 5.798, -14.709, 21.952, -0.088, 0.800, -0.634, 0.488, 10.681, 13.977, 21.743, 22.230, 20.750
153743, 0.942, -0.294, 0.194, -6.714, 0.366, -2.014, 25.169, -0.458, -0.541, 0.626, 12.573, 7.935, -10.498, 21.967, -0.119, 0.775, -0.639, 3.784, 2.380, 2.319, 21.752, 22.230, 20.750
153775, 0.944, -0.281, 0.197, -5.127, -0.122, -1.282, 25.163, -0.476, -0.544, 0.658, 15.442, 8.301, -6.226, 21.967, -0.162, 0.763, -0.641, 4.944, 2.808, -4.700, 21.752, 22.230, 20.710
153809, 0.961, -0.273, 0.180, -4.822, 0.427, -1.587, 25.166, -0.489, -0.522, 0.654, 19.470, -0.427, -10.498, 21.982, -0.149, 0.779, -0.609, 7.446, -2.319, -7.751, 21.746, 22.230, 20.710
153841, 0.962, -0.273, 0.185, -5.676, 0.732, -0.244, 25.166, -0.482, -0.531, 0.668, 12.695, 2.258, -11.841, 21.988, -0.116, 0.787, -0.609, 12.451, -17.090, -17.944, 21.746, 22.230, 20.710
153875, 0.977, -0.282, 0.182, -5.188, 2.930, 1.343, 25.130, -0.483, -0.528, 0.679, 13.489, 0.183, -9.644, 21.967, -0.155, 0.793, -0.650, 10.132, -18.921, -21.179, 21.764, 22.230, 20.730
153908, 0.980, -0.289, 0.180, -4.028, 4.517, 1.038, 25.166, -0.490, -0.536, 0.691, 5.981, -0.488, -14.832, 21.952, -0.193, 0.798, -0.669, 3.540, -30.396, -27.588, 21.767, 22.230, 20.730
153940, 0.983, -0.295, 0.190, -3.906, 5.127, 1.282, 25.154, -0.462, -0.550, 0.682, 9.460, 0.793, -20.447, 21.958, -0.253, 0.772, -0.639, -13.306, -32.837, -19.287, 21.767, 22.230, 20.730
153974, 0.981, -0.298, 0.188, -2.258, 5.310, 0.793, 25.166, -0.468, -0.553, 0.707, 4.822, -2.014, -23.804, 21.964, -0.290, 0.773, -0.603, -6.226, -17.700, -12.573, 21.761, 22.230, 20.730
154006, 0.986, -0.293, 0.189, -2.075, 4.700, -0.305, 25.175, -0.459, -0.556, 0.663, 6.775, 5.798, -26.978, 21.982, -0.268, 0.788, -0.602, 3.418, -2.930, -7.996, 21.773, 22.170, 20.730
154038, 0.983, -0.284, 0.191, -2.441, 6.104, -0.671, 25.166, -0.454, -0.553, 0.693, 14.893, 3.174, -29.053, 21.955, -0.245, 0.799, -0.601, 3.845, -5.371, -10.620, 21.767, 22.170, 20.730
154073, 0.992, -0.290, 0.195, -2.869, 7.507, -0.244, 25.151, -0.451, -0.531, 0.708, 11.536, 3.357, -23.560, 21.955, -0.239, 0.806, -0.602, 3.784, -10.803, -17.456, 21.767, 22.170, 20.730
154105, 0.991, -0.297, 0.199, -2.747, 7.324, 0.671, 25.157, -0.449, -0.555, 0.713, 3.601, 2.502, -20.386, 21.979, -0.272, 0.802, -0.613, 6.287, -12.573, -21.790, 21.761, 22.170, 20.730
154137, 0.994, -0.284, 0.208, -2.075, 5.859, 0.183, 25.181, -0.434, -0.580, 0.693, 5.066, 5.005, -23.987, 21.946, -0.367, 0.782, -0.602, 1.770, -2.502, -15.503, 21.770, 22.170, 20.730
154171, 0.982, -0.282, 0.196, -1.770, 3.845, -0.854, 25.154, -0.421, -0.554, 0.680, 7.324, 4.822, -18.799, 21.970, -0.354, 0.774, -0.566, 6.592, -2.319, -5.615, 21.761, 22.170, 20.730
154203, 0.979, -0.274, 0.200, -2.991, 3.662, -0.488, 25.175, -0.424, -0.541, 0.712, 7.690, 4.211, -14.954, 21.955, -0.307, 0.779, -0.575, 11.108, -4.883, -4.883, 21.782, 22.170, 20.730
154238, 0.974, -0.292, 0.202, -3.113, 3.479, -0.183, 25.169, -0.409, -0.553, 0.703, -0.916, 2.991, -10.742, 21.955, -0.287, 0.786, -0.603, 10.803, -2.441, -4.761, 21.749, 22.170, 20.710
154271, 0.970, -0.281, 0.204, -1.953, 3.540, -0.549, 25.151, -0.435, -0.582, 0.656, -3.418, 4.578, -13.062, 21.943, -0.288, 0.777, -0.585, 6.531, -1.099, -6.653, 21.797, 22.170, 20.710
154304, 0.973, -0.261, 0.202, -2.930, 3.479, -0.305, 25.160, -0.400, -0.554, 0.676, 9.705, 6.592, -15.991, 21.952, -0.273, 0.791, -0.576, 17.395, -1.648, -11.230, 21.764, 22.110, 20.710
154339, 0.959, -0.286, 0.208, -2.014, 3.418, -0.854, 25.184, -0.402, -0.538, 0.701, 4.517, 5.371, -7.996, 21.958, -0.312, 0.762, -0.591, 10.681, -4.822, -3.723, 21.743, 22.110, 20.730
154372, 0.961, -0.287, 0.205, -1.099, 2.747, -0.366, 25.148, -0.400, -0.562, 0.690, -5.432, 4.883, -6.775, 21.985, -0.351, 0.738, -0.572, -5.005, 8.484, -16.663, 21.776, 22.110, 20.730
154405, 0.965, -0.272, 0.208, -1.221, 1.892, -0.671, 25.163, -0.400, -0.559, 0.662, 0.061, 3.235, -3.845, 21.982, -0.323, 0.765, -0.585, 10.925, 6.348, 0.488, 21.770, 22.130, 20.730
154440, 0.958, -0.295, 0.212, -0.488, 1.953, -1.770, 25.163, -0.392, -0.568, 0.681, 2.014, 5.432, -4.883, 21.976, -0.312, 0.768, -0.614, 3.479, 12.878, -4.883, 21.779, 22.130, 20.750
154473, 0.963, -0.288, 0.209, 0.977, 1.709, -1.953, 25.148, -0.393, -0.562, 0.660, -1.038, 8.545, -3.601, 21.988, -0.331, 0.768, -0.602, -11.841, 23.926, -13.000, 21.779, 22.130, 20.750
154506, 0.957, -0.292, 0.204, 2.075, 1.648, -2.686, 25.163, -0.396, -0.557, 0.684, 4.822, 9.338, -0.977, 21.970, -0.386, 0.734, -0.552, -9.033, 20.447, -11.902, 21.782, 22.130, 20.750
154541, 0.963, -0.281, 0.200, 1.221, 0.732, -2.319, 25.175, -0.394, -0.572, 0.693, 1.038, 5.371, 1.404, 22.000, -0.360, 0.741, -0.548, -1.160, 16.174, -5.920, 21.782, 22.130, 20.730
154574, 0.973, -0.261, 0.213, 2.869, -1.099, -4.272, 25.166, -0.431, -0.574, 0.688, 0.610, 2.441, 7.385, 21.982, -0.342, 0.734, -0.526, 0.488, -1.099, 3.723, 21.767, 22.130, 20.730
154609, 1.023, -0.330, 0.213, 2.747, -0.488, 1.404, 25.148, -0.396, -0.572, 0.710, 1.648, -1.404, 5.798, 22.000, -0.351, 0.814, -0.622, 4.211, 6.592, 1.465, 21.788, 22.130, 20.730
154642, 1.006, -0.300, 0.206, 8.423, -1.343, 0.854, 25.172, -0.422, -0.567, 0.714, -4.333, 2.686, 12.573, 21.964, -0.321, 0.817, -0.614, 1.160, 11.536, 3.052, 21.782, 22.130, 20.730
154675, 1.012, -0.308, 0.218, 10.315, -3.174, -0.183, 25.172, -0.449, -0.603, 0.710, -11.169, 1.099, 12.939, 22.003, -0.294, 0.813, -0.631, -2.319, 25.635, -4.822, 21.755, 22.130, 20.730
154710, 0.990, -0.283, 0.203, 12.817, -2.686, -0.610, 25.178, -0.430, -0.592, 0.699, -3.601, 5.249, 14.282, 21.982, -0.370, 0.784, -0.565, -12.268, 24.353, -21.484, 21.782, 22.170, 20.730
154743, 1.011, -0.268, 0.203, 13.367, -3.113, -1.160, 25.196, -0.457, -0.566, 0.681, -0.916, 3.906, 11.963, 21.997, -0.388, 0.799, -0.549, 8.362, 23.193, 3.052, 21.800, 22.170, 20.750
154776, 0.980, -0.257, 0.194, 10.437, -1.038, -0.671, 25.166, -0.445, -0.560, 0.696, -3.357, 2.319, 9.583, 21.970, -0.354, 0.768, -0.535, -2.747, 12.329, -2.930, 21.761, 22.170, 20.750
154811, 0.977, -0.262, 0.202, 7.324, 1.282, 0.549, 25.151, -0.449, -0.578, 0.665, -11.353, -1.465, 10.620, 21.976, -0.353, 0.766, -0.525, 7.141, 10.864, 2.747, 21.767, 22.170, 20.750
154844, 0.959, -0.264, 0.211, 6.104, 2.563, 1.953, 25.169, -0.449, -0.583, 0.660, -3.296, -3.784, 7.080, 21.997, -0.317, 0.756, -0.547, 2.136, 7.385, 2.930, 21.767, 22.170, 20.730
154877, 0.961, -0.268, 0.208, 5.493, 2.991, 3.174, 25.178, -0.422, -0.563, 0.645, -5.005, -1.526, 6.653, 21.976, -0.302, 0.776, -0.566, 6.409, 10.681, 1.831, 21.761, 22.170, 20.730
154912, 0.945, -0.280, 0.214, 7.324, 1.953, 1.526, 25.181, -0.440, -0.556, 0.646, -2.991, -2.258, 5.310, 21.952, -0.259, 0.773, -0.588, 4.272, 11.108, 3.906, 21.788, 22.230, 20.730
154945, 0.938, -0.260, 0.210, 7.874, 1.709, 1.465, 25.169, -0.423, -0.557, 0.640, -3.845, -4.028, 3.479, 21.967, -0.297, 0.763, -0.551, 0.305, 11.414, -2.808, 21.785, 22.230, 20.750
154977, 0.945, -0.253, 0.207, 7.568, 0.916, 2.014, 25.172, -0.444, -0.553, 0.635, -3.723, -4.395, 5.249, 21.964, -0.305, 0.778, -0.546, 2.014, 10.925, -0.366, 21.776, 22.230, 20.750
155012, 0.938, -0.256, 0.206, 7.080, 0.427, 1.892, 25.184, -0.446, -0.564, 0.638, -2.441, -3.418, 2.014, 21.964, -0.289, 0.775, -0.542, 2.441, 10.254, -0.183, 21.767, 22.290, 20.750
155045, 0.945, -0.250, 0.209, 6.348, -0.244, 2.808, 25.166, -0.444, -0.546, 0.641, 0.305, -4.944, 1.160, 21.964, -0.275, 0.769, -0.539, 2.686, 9.338, -3.601, 21.800, 22.290, 20.710
155080, 0.959, -0.254, 0.216, 6.470, -0.977, 3.601, 25.163, -0.441, -0.554, 0.648, -4.028, -5.310, 3.357, 21.964, -0.276, 0.794, -0.552, 4.272, 9.216, -3.479, 21.779, 22.290, 20.710
155113, 0.969, -0.258, 0.217, 6.104, -1.038, 4.089, 25.160, -0.456, -0.578, 0.649, -5.310, -5.188, 5.127, 21.988, -0.290, 0.800, -0.559, 4.272, 10.437, -3.906, 21.791, 22.250, 20.710
155146, 0.967, -0.266, 0.213, 6.042, -1.404, 3.235, 25.169, -0.450, -0.575, 0.665, 0.305, -5.737, 1.160, 21.961, -0.307, 0.791, -0.547, 2.502, 10.437, -5.493, 21.764, 22.250, 20.750
155181, 0.965, -0.265, 0.208, 4.150, -1.587, 3.479, 25.160, -0.435, -0.574, 0.653, -3.174, -6.348, -0.244, 21.994, -0.337, 0.790, -0.550, 3.357, 7.507, -5.737, 21.776, 22.250, 20.750
155214, 0.986, -0.268, 0.216, 3.967, -1.099, 4.700, 25.190, -0.446, -0.567, 0.680, 0.610, -4.883, 1.526, 21.973, -0.281, 0.787, -0.551, 4.700, 9.583, -3.357, 21.794, 22.310, 20.750
155247, 0.974, -0.296, 0.213, 3.540, -1.099, 3.540, 25.178, -0.420, -0.578, 0.665, -2.563, -5.371, -0.122, 21.994, -0.324, 0.807, -0.582, 2.686, 5.798, -3.418, 21.782, 22.310, 20.750
155282, 0.991, -0.310, 0.210, 4.822, -0.061, 2.441, 25.160, -0.411, -0.580, 0.686, 1.343, -4.395, 4.517, 21.976, -0.312, 0.819, -0.603, 3.052, 5.310, -0.183, 21.773, 22.310, 20.750
155315, 0.979, -0.331, 0.218, 8.911, -0.793, 0.000, 25.148, -0.410, -0.573, 0.690, -3.357, -2.563, 9.277, 21.976, -0.285, 0.814, -0.613, -1.160, 10.437, -1.770, 21.794, 22.350, 20.750
155348, 1.003, -0.325, 0.219, 13.489, -1.160, -1.038, 25.166, -0.415, -0.590, 0.696, -9.399, -2.441, 14.526, 21.985, -0.300, 0.809, -0.606, -0.793, 16.663, -3.906, 21.770, 22.350, 20.730
155383, 0.992, -0.308, 0.215, 15.808, -1.526, -1.465, 25.181, -0.436, -0.590, 0.676, -5.981, -4.028, 11.230, 21.973, -0.283, 0.821, -0.603, -0.977, 19.775, 4.944, 21.788, 22.350, 20.730
155416, 0.981, -0.328, 0.227, 18.494, -1.953, -3.662, 25.163, -0.413, -0.589, 0.667, -1.038, -1.038, 1.892, 21.964, -0.264, 0.813, -0.623, -7.568, 23.987, 1.587, 21.782, 22.370, 20.730
155449, 0.988, -0.344, 0.232, 24.231, -5.066, -6.775, 25.160, -0.404, -0.581, 0.671, -0.061, -2.197, 5.432, 21.964, -0.230, 0.796, -0.653, -10.864, 33.020, -3.052, 21.761, 22.370, 20.710
155484, 0.942, -0.257, 0.208, 28.503, -8.545, -6.775, 25.169, -0.433, -0.567, 0.653, -0.610, 5.676, 8.606, 21.973, -0.346, 0.777, -0.495, -17.151, 31.433, -6.653, 21.788, 22.310, 20.710
155517, 0.975, -0.216, 0.212, 25.818, -8.118, -6.104, 25.184, -0.457, -0.565, 0.644, -2.319, 1.160, 11.414, 21.979, -0.327, 0.789, -0.460, -12.512, 23.132, -9.033, 21.806, 22.310, 20.710
155552, 0.968, -0.192, 0.196, 17.456, -5.005, -2.197, 25.169, -0.476, -0.552, 0.643, -2.258, -1.953, 12.268, 21.979, -0.322, 0.789, -0.450, -4.578, 15.869, -3.174, 21.770, 22.310, 20.730
155585, 0.964, -0.194, 0.199, 11.536, -4.028, 2.563, 25.175, -0.480, -0.542, 0.659, -3.174, -5.798, 12.939, 21.985, -0.257, 0.782, -0.465, 4.150, 13.672, -0.488, 21.791, 22.370, 20.730
155618, 0.969, -0.219, 0.202, 9.155, -3.235, 5.981, 25.187, -0.467, -0.553, 0.653, -8.606, -9.033, 11.292, 21.985, -0.241, 0.822, -0.519, 8.667, 10.986, -3.723, 21.800, 22.370, 20.730
155653, 0.970, -0.256, 0.214, 9.583, -1.587, 5.981, 25.181, -0.462, -0.560, 0.643, -6.165, -8.057, 6.226, 21.991, -0.222, 0.817, -0.545, 5.859, 13.123, -6.470, 21.788, 22.370, 20.730
155686, 0.960, -0.240, 0.209, 10.559, -0.427, 6.897, 25.181, -0.449, -0.562, 0.650, -2.197, -7.507, 0.854, 21.991, -0.257, 0.813, -0.517, 7.812, 14.709, -5.859, 21.776, 22.410, 20.730
155719, 0.964, -0.249, 0.211, 10.010, -0.366, 7.690, 25.172, -0.461, -0.571, 0.654, -3.967, -10.071, -0.122, 21.982, -0.271, 0.804, -0.531, 6.836, 11.780, -8.789, 21.797, 22.410, 20.730
155754, 0.975, -0.256, 0.210, 8.423, 0.549, 8.301, 25.187, -0.423, -0.580, 0.646, -7.629, -10.254, -1.587, 21.988, -0.290, 0.811, -0.538, 7.690, 13.062, -6.348, 21.791, 22.410, 20.730
155787, 0.982, -0.285, 0.208, 8.057, 0.244, 7.996, 25.169, -0.429, -0.605, 0.683, -1.404, -9.644, -1.831, 22.006, -0.273, 0.821, -0.583, 9.033, 13.733, -4.517, 21.770, 22.410, 20.730
155820, 0.985, -0.325, 0.224, 8.545, -0.488, 5.310, 25.172, -0.400, -0.609, 0.681, -2.380, -9.583, -7.263, 22.015, -0.227, 0.840, -0.629, 3.601, 15.869, -4.456, 21.800, 22.410, 20.750
155855, 1.033, -0.400, 0.233, 12.817, -2.014, 4.639, 25.181, -0.355, -0.627, 0.719, -0.305, -10.803, -0.916, 21.985, -0.269, 0.870, -0.709, 0.244, 21.606, -10.315, 21.785, 22.410, 20.750
155888, 1.034, -0.430, 0.230, 24.597, -4.761, 0.549, 25.169, -0.355, -0.627, 0.752, -2.625, -5.981, 9.399, 22.021, -0.263, 0.882, -0.750, -6.042, 36.377, -9.216, 21.770, 22.430, 20.750
155923, 1.050, -0.403, 0.239, 34.851, -10.986, -2.625, 25.157, -0.383, -0.643, 0.785, -7.202, -3.723, 21.362, 22.009, -0.239, 0.892, -0.704, -18.433, 40.588, -6.653, 21.788, 22.430, 20.750
155957, 1.110, -0.392, 0.225, 40.894, -18.066, -1.770, 25.169, -0.453, -0.689, 0.821, -11.719, -11.780, 29.419, 22.003, -0.212, 0.914, -0.718, -25.757, 69.824, -34.363, 21.800, 22.430, 20.750
155990, 1.113, -0.331, 0.202, 49.438, -18.005, -1.038, 25.190, -0.471, -0.692, 0.763, -16.357, -2.136, 20.142, 21.985, -0.275, 0.862, -0.733, -49.133, 97.900, -116.394, 21.776, 22.470, 20.750
156025, 1.130, -0.276, 0.175, 45.837, -16.663, -4.333, 25.190, -0.503, -0.687, 0.764, -2.380, 2.441, 14.893, 22.021, -0.667, 0.885, -0.430, -37.842, 42.053, -39.063, 21.782, 22.470, 20.730
156058, 1.146, -0.196, 0.175, 38.269, -11.047, -1.099, 25.178, -0.530, -0.637, 0.769, -0.916, 2.014, 16.724, 22.003, -0.429, 0.896, -0.472, -7.996, 32.654, -3.540, 21.809, 22.470, 20.730
156091, 1.080, -0.220, 0.164, 26.611, -0.122, 3.113, 25.166, -0.530, -0.606, 0.744, -16.907, -7.202, 12.817, 22.003, -0.372, 0.879, -0.501, 5.615, 27.954, -4.089, 21.809, 22.470, 20.730
156127, 1.042, -0.260, 0.174, 23.743, 5.615, 6.226, 25.178, -0.461, -0.603, 0.690, -23.254, -7.812, 4.517, 22.024, -0.312, 0.835, -0.509, 2.075, 23.926, -2.563, 21.812, 22.470, 20.750
156160, 0.994, -0.250, 0.203, 23.376, 7.629, 7.996, 25.163, -0.446, -0.597, 0.661, -24.841, -6.042, 5.554, 22.021, -0.317, 0.818, -0.516, 7.080, 30.518, -6.165, 21.785, 22.470, 20.750
156195, 0.935, -0.220, 0.199, 23.743, 9.705, 7.446, 25.160, -0.421, -0.558, 0.607, -22.339, -6.226, 8.972, 22.015, -0.288, 0.769, -0.456, 10.315, 28.564, -1.221, 21.788, 22.510, 20.750
156228, 0.918, -0.201, 0.223, 21.057, 9.460, 9.460, 25.184, -0.444, -0.557, 0.567, -30.029, -10.010, 14.099, 22.000, -0.226, 0.775, -0.496, 17.090, 24.170, 1.831, 21.788, 22.510, 20.730
156261, 0.868, -0.199, 0.230, 19.836, 11.292, 7.996, 25.172, -0.437, -0.554, 0.505, -29.663, -7.812, 14.709, 22.021, -0.187, 0.760, -0.463, 6.775, 21.790, -2.197, 21.782, 22.510, 20.730
156297, 0.849, -0.166, 0.249, 17.883, 10.193, 8.728, 25.178, -0.456, -0.554, 0.480, -20.508, -9.277, 6.470, 22.009, -0.173, 0.732, -0.441, 10.254, 21.973, -2.747, 21.779, 22.510, 20.730
156330, 0.822, -0.172, 0.246, 14.465, 11.719, 8.484, 25.151, -0.411, -0.556, 0.436, -16.968, -4.517, -5.005, 22.012, -0.187, 0.721, -0.444, 4.578, 19.043, -11.780, 21.791, 22.510, 20.730
156363, 0.800, -0.181, 0.262, 11.414, 9.644, 7.263, 25.205, -0.402, -0.542, 0.456, -4.028, -1.587, -3.235, 22.021, -0.221, 0.694, -0.450, 4.333, 23.437, -12.451, 21.782, 22.510, 20.730
156398, 0.782, -0.203, 0.265, 10.071, 5.981, 6.409, 25.178, -0.369, -0.531, 0.474, -6.653, -6.897, 0.244, 22.027, -0.167, 0.699, -0.457, 8.362, 21.301, 2.136, 21.767, 22.510, 20.730
156431, 0.790, -0.221, 0.286, 10.315, 0.610, 5.981, 25.175, -0.382, -0.565, 0.440, -15.869, -9.399, 8.728, 22.030, -0.122, 0.718, -0.510, 5.798, 17.334, -3.784, 21.767, 22.510, 20.710
156464, 0.791, -0.202, 0.277, 10.498, -2.930, 4.944, 25.181, -0.383, -0.555, 0.434, 0.732, -9.094, 11.353, 22.033, -0.165, 0.718, -0.471, 2.625, 15.991, -8.301, 21.812, 22.510, 20.710
156500, 0.812, -0.190, 0.271, 8.911, -7.935, 3.967, 25.175, -0.400, -0.562, 0.453, -2.686, -11.108, 20.874, 22.012, -0.159, 0.722, -0.480, 3.784, 12.207, -9.827, 21.806, 22.470, 20.710
156531, 0.828, -0.232, 0.257, 7.324, -10.864, 3.357, 25.172, -0.381, -0.558, 0.512, 2.747, -10.681, 31.128, 21.994, -0.162, 0.748, -0.525, 0.366, 7.751, -12.573, 21.773, 22.470, 20.750
156565, 0.876, -0.277, 0.236, 11.169, -16.052, 2.502, 25.181, -0.421, -0.571, 0.584, 0.916, -14.526, 30.029, 22.027, -0.205, 0.760, -0.551, -5.737, 7.385, -18.555, 21.779, 22.470, 20.750
156597, 0.912, -0.286, 0.240, 15.686, -21.729, 4.333, 25.172, -0.417, -0.598, 0.602, 5.188, -19.043, 25.757, 22.027, -0.237, 0.787, -0.563, -6.775, 10.010, -20.508, 21.791, 22.570, 20.750
156629, 0.934, -0.333, 0.241, 21.057, -28.992, 5.005, 25.196, -0.407, -0.609, 0.648, 6.653, -25.085, 32.532, 22.018, -0.224, 0.812, -0.625, -9.888, 13.855, -24.841, 21.812, 22.570, 20.750
156663, 0.932, -0.360, 0.233, 32.898, -37.781, 8.728, 25.172, -0.387, -0.601, 0.667, 2.930, -32.166, 40.405, 22.009, -0.192, 0.790, -0.645, -20.142, 21.118, -44.312, 21.779, 22.570, 20.750
156695, 0.968, -0.324, 0.217, 41.687, -46.570, 6.165, 25.172, -0.489, -0.617, 0.664, -2.686, -41.565, 44.434, 22.021, -0.230, 0.806, -0.590, -33.081, 26.123, -68.115, 21.770, 22.530, 20.750
156727, 1.042, -0.270, 0.158, 35.095, -41.687, 8.545, 25.181, -0.559, -0.630, 0.685, 4.578, -42.847, 26.733, 22.033, -0.362, 0.781, -0.439, -39.673, 36.072, -87.830, 21.782, 22.530, 20.750
156761, 1.052, -0.211, 0.133, 30.396, -31.311, 15.930, 25.175, -0.498, -0.617, 0.657, 23.804, -27.954, -8.667, 22.009, -0.488, 0.781, -0.412, -22.583, 38.452, -79.590, 21.803, 22.530, 20.750
156793, 1.050, -0.272, 0.134, 23.071, -27.527, 16.541, 25.196, -0.454, -0.600, 0.746, 18.738, -25.818, -6.836, 22.033, -0.543, 0.786, -0.455, -3.601, 24.231, -42.297, 21.794, 22.570, 20.750
156825, 1.063, -0.309, 0.119, 17.822, -17.944, 18.433, 25.178, -0.418, -0.576, 0.773, 6.714, -30.884, -5.737, 22.039, -0.480, 0.807, -0.508, 10.010, 19.714, -16.846, 21.794, 22.570, 20.730
156859, 1.026, -0.390, 0.165, 19.470, -10.803, 17.212, 25.199, -0.359, -0.621, 0.728, -16.968, -30.090, 0.305, 22.015, -0.389, 0.855, -0.658, 9.155, 24.292, -13.184, 21.776, 22.570, 20.730
156891, 1.021, -0.398, 0.152, 26.855, -7.019, 11.169, 25.178, -0.379, -0.598, 0.731, -5.249, -20.813, 8.179, 22.009, -0.398, 0.853, -0.604, -7.568, 27.710, -22.705, 21.770, 22.570, 20.730
156925, 1.057, -0.293, 0.152, 29.114, -2.319, 9.399, 25.172, -0.457, -0.607, 0.725, -13.733, -15.686, 9.766, 22.033, -0.436, 0.830, -0.477, -6.470, 31.433, -16.724, 21.758, 22.570, 20.730
156957, 1.060, -0.267, 0.151, 24.597, 3.540, 10.254, 25.166, -0.443, -0.634, 0.703, -21.729, -14.954, 6.287, 22.018, -0.495, 0.832, -0.452, -0.671, 30.273, -9.521, 21.779, 22.570, 20.730
156989, 1.054, -0.289, 0.169, 17.639, 9.644, 9.521, 25.184, -0.442, -0.641, 0.697, -17.151, -11.719, 2.014, 22.027, -0.439, 0.844, -0.503, 10.193, 26.062, 8.057, 21.785, 22.570, 20.730
157023, 1.044, -0.326, 0.206, 14.282, 12.451, 9.033, 25.184, -0.427, -0.658, 0.688, -16.052, -9.277, -2.808, 22.024, -0.357, 0.843, -0.578, 10.742, 24.292, 4.822, 21.791, 22.570, 20.750
157055, 1.015, -0.328, 0.208, 12.756, 15.564, 7.690, 25.172, -0.383, -0.655, 0.670, -10.864, -1.770, -6.592, 22.003, -0.387, 0.838, -0.551, 8.606, 22.278, 1.709, 21.773, 22.570, 20.750
157087, 0.989, -0.336, 0.227, 11.536, 12.268, 5.859, 25.178, -0.375, -0.648, 0.688, -11.536, -5.005, 2.991, 22.003, -0.360, 0.827, -0.577, 9.949, 20.691, 5.981, 21.776, 22.590, 20.750
157121, 0.974, -0.354, 0.226, 10.925, 9.094, 2.686, 25.181, -0.361, -0.661, 0.649, -14.343, -3.540, 4.944, 22.009, -0.328, 0.829, -0.600, 5.798, 18.005, 4.639, 21.773, 22.590, 20.750
157153, 0.962, -0.353, 0.220, 10.803, 7.202, -1.221, 25.187, -0.371, -0.645, 0.646, -4.700, 0.793, 7.263, 22.012, -0.338, 0.805, -0.577, -0.061, 16.724, -2.319, 21.803, 22.590, 20.750
157187, 0.970, -0.356, 0.216, 14.343, 4.150, -1.465, 25.178, -0.353, -0.611, 0.690, -4.822, 1.282, 11.719, 22.006, -0.334, 0.808, -0.575, -1.343, 17.761, -2.930, 21.764, 22.570, 20.750
157219, 0.962, -0.326, 0.212, 17.212, 0.854, -0.854, 25.175, -0.399, -0.607, 0.679, -12.512, -1.404, 18.616, 22.018, -0.318, 0.810, -0.544, -5.737, 17.700, -5.188, 21.779, 22.570, 20.730
157251, 0.987, -0.320, 0.187, 20.020, 0.671, 1.038, 25.181, -0.417, -0.624, 0.701, -12.329, -5.493, 16.174, 22.000, -0.351, 0.800, -0.537, -7.385, 23.926, -7.629, 21.770, 22.570, 20.730
157285, 0.962, -0.310, 0.195, 24.109, 2.563, 3.662, 25.190, -0.405, -0.604, 0.681, -10.559, -5.371, 11.169, 22.021, -0.343, 0.799, -0.498, -10.742, 27.344, -12.207, 21.764, 22.630, 20.730
157318, 0.973, -0.297, 0.207, 23.987, 1.709, 5.676, 25.196, -0.415, -0.620, 0.672, -15.015, -9.277, 12.390, 22.006, -0.359, 0.783, -0.489, -5.432, 27.283, -12.939, 21.800, 22.630, 20.730
157350, 0.969, -0.300, 0.209, 22.156, 3.418, 8.179, 25.166, -0.394, -0.639, 0.648, -16.357, -12.512, 9.583, 22.027, -0.377, 0.777, -0.495, 0.977, 27.039, -9.949, 21.779, 22.630, 20.730
157384, 0.952, -0.310, 0.220, 19.592, 4.028, 10.193, 25.181, -0.397, -0.627, 0.641, -14.221, -12.695, 8.179, 22.036, -0.343, 0.785, -0.514, 6.653, 26.550, -3.479, 21.764, 22.570, 20.730
157416, 0.932, -0.313, 0.229, 18.616, 3.418, 11.353, 25.178, -0.375, -0.618, 0.635, -16.418, -15.442, 8.789, 22.015, -0.325, 0.775, -0.528, 10.193, 27.100, -3.235, 21.791, 22.570, 20.710
157448, 0.918, -0.314, 0.241, 18.433, 1.953, 10.620, 25.187, -0.378, -0.615, 0.600, -17.761, -16.968, 11.719, 22.024, -0.302, 0.780, -0.538, 6.958, 23.071, -4.333, 21.797, 22.570, 20.710
157483, 0.889, -0.300, 0.250, 18.921, 1.160, 9.644, 25.178, -0.366, -0.623, 0.575, -18.127, -18.677, 11.780, 22.015, -0.286, 0.759, -0.527, 6.531, 24.475, -7.141, 21.776, 22.570, 20.710
157515, 0.867, -0.291, 0.250, 18.250, -0.244, 8.057, 25.178, -0.362, -0.632, 0.533, -16.602, -16.052, 8.789, 22.024, -0.279, 0.731, -0.501, 3.540, 22.217, -9.399, 21.797, 22.570, 20.730
157549, 0.859, -0.268, 0.261, 15.198, -2.136, 5.981, 25.184, -0.361, -0.610, 0.540, -5.554, -12.451, 10.925, 22.009, -0.303, 0.742, -0.499, 7.507, 16.846, -6.836, 21.797, 22.570, 20.730
157581, 0.843, -0.292, 0.263, 12.329, -3.235, 3.357, 25.184, -0.352, -0.609, 0.524, -5.615, -16.602, 5.432, 22.021, -0.232, 0.737, -0.520, 1.160, 15.991, -5.737, 21.785, 22.590, 20.730
157613, 0.867, -0.324, 0.262, 10.925, -5.920, 2.075, 25.175, -0.323, -0.639, 0.541, -4.395, -13.916, 8.240, 22.021, -0.231, 0.755, -0.579, 3.174, 16.907, -8.423, 21.785, 22.590, 20.750
157648, 0.891, -0.340, 0.250, 12.695, -7.812, -1.038, 25.172, -0.334, -0.614, 0.599, 11.230, -6.531, 10.864, 22.006, -0.307, 0.773, -0.566, -7.568, 12.329, -12.573, 21.788, 22.590, 20.750
157680, 0.967, -0.354, 0.250, 14.038, -10.559, -1.465, 25.181, -0.368, -0.639, 0.691, 3.296, -9.155, 17.883, 22.039, -0.311, 0.811, -0.580, -7.812, 14.526, -10.071, 21.788, 22.590, 20.750
157712, 1.019, -0.415, 0.208, 20.386, -10.864, 0.122, 25.166, -0.361, -0.660, 0.739, 2.625, -13.672, 16.846, 22.030, -0.399, 0.827, -0.631, -7.690, 21.851, -14.893, 21.794, 22.590, 20.750
157746, 1.051, -0.407, 0.190, 22.827, -6.042, -1.343, 25.160, -0.370, -0.690, 0.771, -7.629, -7.996, 12.451, 22.027, -0.444, 0.829, -0.598, -11.108, 22.949, -8.118, 21.809, 22.590, 20.750
157778, 1.124, -0.407, 0.178, 21.667, 2.014, -0.916, 25.160, -0.389, -0.693, 0.802, -8.789, -6.531, 13.672, 22.027, -0.460, 0.874, -0.615, -4.883, 25.452, -0.244, 21.806, 22.570, 20.750
157810, 1.114, -0.448, 0.202, 23.926, 10.559, 0.366, 25.175, -0.389, -0.727, 0.812, -21.667, -5.310, 5.188, 22.036, -0.441, 0.871, -0.648, -1.831, 31.677, -1.953, 21.806, 22.570, 20.770
157845, 1.070, -0.399, 0.213, 31.677, 15.991, 2.075, 25.160, -0.388, -0.664, 0.755, -18.677, 2.075, 2.686, 22.030, -0.373, 0.865, -0.586, -9.155, 36.560, 7.996, 21.803, 22.570, 20.770
157877, 1.023, -0.277, 0.272, 38.330, 19.287, 3.906, 25.172, -0.466, -0.631, 0.679, -32.837, -2.625, 10.925, 22.018, -0.265, 0.858, -0.479, -8.179, 42.725, 6.470, 21.803, 22.630, 20.770
157911, 0.993, -0.125, 0.338, 38.635, 18.738, 10.132, 25.169, -0.563, -0.683, 0.547, -46.265, -12.756, 12.146, 22.033, -0.234, 0.870, -0.328, 0.977, 44.373, 2.258, 21.812, 22.630, 20.730
157943, 0.959, -0.070, 0.452, 30.396, 15.503, 18.066, 25.157, -0.591, -0.793, 0.422, -50.110, -24.353, 8.057, 22.039, -0.182, 0.891, -0.360, 21.362, 27.283, 7.263, 21.782, 22.630, 20.730
157975, 0.915, -0.180, 0.513, 12.207, 9.277, 19.714, 25.157, -0.468, -0.878, 0.389, -33.875, -35.278, -7.385, 22.036, -0.214, 0.853, -0.528, 42.847, 13.428, 9.827, 21.782, 22.590, 20.730
158010, 0.894, -0.328, 0.459, -5.005, 3.296, 16.968, 25.133, -0.272, -0.879, 0.446, -9.521, -33.264, -13.672, 22.009, -0.308, 0.777, -0.676, 46.814, -23.132, 20.325, 21.806, 22.590, 20.730
158043, 0.870, -0.473, 0.450, -9.766, 0.671, 10.681, 25.175, -0.195, -0.842, 0.497, 1.404, -28.992, 2.014, 22.012, -0.294, 0.772, -0.745, 63.538, -45.593, 60.730, 21.821, 22.590, 20.730
158076, 0.875, -0.542, 0.374, -7.324, -0.488, -1.282, 25.160, -0.222, -0.757, 0.528, 12.207, -12.695, 21.118, 22.024, -0.431, 0.678, -0.811, 65.918, -116.699, 73.181, 21.797, 22.590, 20.730
158111, 0.922, -0.362, 0.347, 2.991, -10.681, -13.123, 25.151, -0.329, -0.682, 0.518, 12.329, 10.803, 27.161, 22.036, -0.166, 0.794, -0.792, 41.504, -74.646, 63.110, 21.800, 22.590, 20.730
158144, 0.872, -0.225, 0.298, 2.625, -6.409, -17.273, 25.175, -0.411, -0.616, 0.505, 8.301, 11.780, 21.912, 22.039, -0.029, 0.735, -0.600, 17.883, -21.790, 7.690, 21.767, 22.590, 20.730
158179, 0.853, -0.174, 0.291, 3.784, -0.977, -13.550, 25.172, -0.441, -0.558, 0.494, 4.578, 11.475, 7.996, 22.033, -0.133, 0.713, -0.505, 11.047, -15.686, 6.470, 21.794, 22.590, 20.730
158212, 0.816, -0.114, 0.344, 6.836, 2.319, -8.728, 25.175, -0.472, -0.568, 0.435, -2.563, 5.920, 2.380, 22.027, -0.047, 0.737, -0.478, 5.493, 1.953, 1.709, 21.797, 22.590, 20.730
158245, 0.762, -0.142, 0.448, 9.155, -0.305, -4.089, 25.163, -0.472, -0.639, 0.387, -15.198, -8.911, 7.690, 22.048, -0.051, 0.670, -0.494, 4.944, 3.174, -6.775, 21.797, 22.590, 20.730
158280, 0.831, -0.199, 0.326, 7.446, -0.916, 3.296, 25.151, -0.376, -0.664, 0.469, 2.441, -19.531, -4.272, 22.030, -0.100, 0.693, -0.579, 17.578, 1.343, -0.183, 21.782, 22.590, 20.730
158313, 0.854, -0.345, 0.319, 5.859, -0.488, 8.484, 25.166, -0.280, -0.669, 0.553, 3.235, -16.357, -5.249, 22.051, -0.119, 0.742, -0.742, 8.728, 21.790, -8.362, 21.800, 22.590, 20.710
158346, 0.945, -0.441, 0.323, 15.808, -0.061, 4.089, 25.178, -0.288, -0.686, 0.643, -0.793, -16.052, 6.104, 22.042, -0.186, 0.786, -0.759, -3.113, 24.109, -16.296, 21.782, 22.530, 20.710
158381, 0.994, -0.384, 0.279, 28.381, -3.418, 3.540, 25.163, -0.352, -0.707, 0.732, -9.644, -19.409, 10.498, 22.027, -0.229, 0.791, -0.692, -1.465, 38.208, -15.503, 21.821, 22.530, 20.710
158414, 1.007, -0.393, 0.247, 35.767, -0.977, 8.423, 25.163, -0.309, -0.665, 0.691, -12.451, -20.020, 3.174, 22.048, -0.314, 0.802, -0.675, -23.315, 54.749, -14.771, 21.776, 22.530, 20.730
158447, 1.025, -0.332, 0.354, 37.720, -5.371, 9.338, 25.154, -0.392, -0.810, 0.673, -31.189, -25.391, 14.526, 22.057, -0.322, 0.830, -0.668, -25.452, 53.955, -23.071, 21.824, 22.510, 20.730
158482, 1.071, -0.334, 0.291, 33.081, 0.793, 7.385, 25.184, -0.361, -0.789, 0.670, -17.151, -20.386, -2.319, 22.039, -0.356, 0.834, -0.600, -8.545, 46.997, -29.846, 21.791, 22.510, 20.730
158515, 1.063, -0.334, 0.267, 29.297, 3.723, 10.437, 25.154, -0.351, -0.752, 0.713, -10.620, -18.860, -7.812, 22.051, -0.428, 0.840, -0.595, -7.324, 37.537, -26.489, 21.788, 22.510, 20.730
158550, 1.072, -0.311, 0.249, 26.123, 7.629, 10.376, 25.187, -0.354, -0.717, 0.718, -15.808, -15.869, -2.258, 22.048, -0.385, 0.833, -0.543, 3.967, 30.640, -17.639, 21.791, 22.470, 20.730
158583, 1.014, -0.287, 0.286, 22.522, 7.874, 13.977, 25.172, -0.346, -0.732, 0.637, -26.733, -21.851, 0.061, 22.054, -0.351, 0.828, -0.565, 14.404, 32.227, -13.916, 21.803, 22.470, 20.710
158616, 0.990, -0.268, 0.300, 17.578, 6.714, 13.428, 25.184, -0.349, -0.742, 0.614, -17.883, -17.334, -1.343, 22.042, -0.330, 0.772, -0.550, 20.508, 16.602, -16.663, 21.800, 22.470, 20.710
158651, 0.942, -0.310, 0.251, 12.756, 6.531, 16.357, 25.181, -0.247, -0.684, 0.613, -10.742, -18.188, -9.216, 22.066, -0.381, 0.685, -0.522, 22.583, 11.414, -0.732, 21.818, 22.410, 20.710
158684, 0.835, -0.343, 0.295, 1.465, 6.531, 18.066, 25.160, -0.150, -0.750, 0.508, -19.348, -18.494, -2.563, 22.045, -0.324, 0.660, -0.655, 44.922, 1.770, 1.404, 21.803, 22.410, 20.750
158717, 0.762, -0.438, 0.353, -10.437, 8.179, 9.888, 25.151, -0.059, -0.766, 0.418, -8.179, -10.010, -0.549, 22.039, -0.238, 0.571, -0.779, 53.284, -34.790, -7.324, 21.821, 22.410, 20.750
158752, 0.719, -0.484, 0.376, -11.292, 5.432, -3.113, 25.160, -0.080, -0.699, 0.408, 8.789, 8.728, 5.432, 22.054, -0.259, 0.553, -0.789, 40.649, -41.687, 18.494, 21.812, 22.410, 20.750
158785, 0.712, -0.313, 0.400, -6.897, -1.099, -9.766, 25.145, -0.210, -0.674, 0.418, 12.390, 14.404, 10.315, 22.048, -0.084, 0.603, -0.692, 21.423, -28.259, 16.113, 21.806, 22.410, 20.750
158818, 0.740, -0.330, 0.397, -4.944, -7.385, -6.409, 25.157, -0.253, -0.675, 0.454, 12.085, 5.066, 9.827, 22.054, -0.055, 0.636, -0.693, 14.954, -19.592, 7.874, 21.821, 22.410, 20.750
158853, 0.853, -0.235, 0.379, 1.343, -14.404, -1.221, 25.166, -0.376, -0.694, 0.525, 15.381, -1.404, 16.724, 22.060, -0.073, 0.699, -0.630, 3.174, -4.578, -11.169, 21.812, 22.410, 20.750
158886, 0.899, -0.277, 0.334, -2.686, -13.184, 8.728, 25.184, -0.314, -0.744, 0.549, 8.667, -14.526, 2.075, 22.054, -0.226, 0.674, -0.635, 1.343, 4.639, -20.935, 21.803, 22.410, 20.730
158921, 0.920, -0.410, 0.308, -3.418, -9.644, 7.507, 25.178, -0.210, -0.720, 0.594, 15.564, -7.507, -3.723, 22.039, -0.351, 0.662, -0.754, 8.789, 3.601, -12.878, 21.812, 22.410, 20.730
158954, 0.909, -0.453, 0.311, 0.671, -6.042, 1.404, 25.151, -0.194, -0.691, 0.608, 5.981, -2.258, 0.977, 22.036, -0.339, 0.682, -0.779, -6.836, 19.104, -7.446, 21.800, 22.350, 20.730
158987, 0.864, -0.363, 0.332, 6.592, -4.089, -1.343, 25.187, -0.241, -0.714, 0.553, -2.258, -2.014, 5.554, 22.051, -0.250, 0.632, -0.661, -12.207, 17.639, 1.282, 21.794, 22.350, 20.730
159022, 0.814, -0.321, 0.362, 6.042, -2.441, -0.061, 25.175, -0.251, -0.710, 0.470, -0.671, -3.113, 4.517, 22.048, -0.135, 0.627, -0.657, -1.648, 15.930, 7.629, 21.815, 22.350, 20.730
159055, 0.803, -0.278, 0.420, 6.470, -7.690, 1.282, 25.187, -0.297, -0.734, 0.428, -1.221, -5.615, 5.737, 22.036, 0.049, 0.665, -0.761, 19.775, 37.720, 1.831, 21.815, 22.310, 20.730
159088, 0.766, -0.314, 0.498, 6.531, -9.094, 5.676, 25.181, -0.277, -0.796, 0.417, -1.404, -10.315, 3.601, 22.036, -0.015, 0.625, -0.819, -28.931, 50.903, -28.931, 21.797, 22.310, 20.730
159123, 0.868, -0.480, 0.335, 7.812, -8.850, 5.798, 25.181, -0.143, -0.753, 0.596, 15.869, -16.052, -3.357, 22.048, -0.211, 0.667, -0.890, -28.076, 72.693, -73.425, 21.797, 22.310, 20.730
159156, 0.992, -0.626, 0.270, 14.404, -4.700, 2.563, 25.160, -0.092, -0.763, 0.795, 9.888, -11.414, 4.822, 22.063, -0.460, 0.675, -0.918, -74.036, 82.947, -118.164, 21.809, 22.310, 20.730
159189, 1.143, -0.698, 0.206, 26.367, -1.282, -2.075, 25.163, -0.099, -0.788, 0.933, -1.587, -9.094, 17.395, 22.033, -0.654, 0.780, -0.918, -50.049, 76.050, -50.537, 21.812, 22.310, 20.750
159224, 1.194, -0.603, 0.244, 45.166, -1.404, -13.672, 25.172, -0.222, -0.821, 0.881, -27.161, 1.587, 28.442, 22.030, -0.574, 0.851, -0.897, -63.721, 57.678, -29.419, 21.800, 22.310, 20.750
159257, 1.111, -0.437, 0.256, 52.917, 8.728, -19.226, 25.169, -0.320, -0.838, 0.760, -35.828, 13.977, 24.841, 22.042, -0.476, 0.831, -0.648, -63.477, 57.068, -24.231, 21.821, 22.290, 20.750
159292, 1.077, -0.282, 0.287, 46.753, 12.451, -13.489, 25.160, -0.387, -0.828, 0.651, -26.184, 20.874, 10.376, 22.042, -0.417, 0.812, -0.501, -43.823, 49.683, -18.066, 21.797, 22.290, 20.770
159325, 1.005, -0.173, 0.353, 37.292, 14.038, -4.700, 25.160, -0.403, -0.782, 0.579, -21.118, 19.043, 0.793, 22.024, -0.313, 0.815, -0.475, -26.367, 42.175, -4.944, 21.809, 22.290, 20.770
159358, 0.929, -0.188, 0.381, 27.344, 13.000, -3.540, 25.151, -0.406, -0.756, 0.516, -19.043, 8.606, -4.639, 22.063, -0.221, 0.809, -0.477, -14.709, 36.926, -11.353, 21.791, 22.310, 20.770
159400, 0.923, -0.172, 0.368, 22.034, 6.409, 3.113, 25.157, -0.399, -0.758, 0.438, -14.893, 14.404, -15.198, 22.051, -0.199, 0.777, -0.454, -12.817, 40.405, -37.415, 21.809, 22.310, 20.730
159432, 0.870, -0.147, 0.354, 16.541, 7.507, 12.085, 25.169, -0.351, -0.738, 0.414, -6.226, 25.574, -23.254, 22.045, -0.312, 0.773, -0.411, 7.568, 38.025, -35.461, 21.791, 22.310, 20.730
159464, 0.832, -0.128, 0.426, 6.897, 5.981, 2.991, 25.163, -0.328, -0.725, 0.389, -4.150, 21.179, -25.085, 22.066, -0.236, 0.758, -0.450, 13.611, 20.508, -18.555, 21.794, 22.310, 20.730
159499, 0.810, -0.190, 0.419, -6.592, 7.812, 2.075, 25.163, -0.300, -0.702, 0.383, -0.854, 9.949, -20.386, 22.039, -0.166, 0.765, -0.499, 17.334, 16.785, -7.690, 21.803, 22.310, 20.730
159531, 0.805, -0.226, 0.414, -5.554, 3.357, -0.916, 25.154, -0.272, -0.713, 0.408, 2.319, 6.775, -12.512, 22.036, -0.188, 0.764, -0.575, 13.245, 19.043, -14.526, 21.812, 22.350, 20.730
159565, 0.833, -0.229, 0.395, 2.808, -2.197, -5.188, 25.133, -0.270, -0.708, 0.414, 5.066, 11.536, -3.967, 22.036, -0.210, 0.763, -0.544, 0.854, 13.794, -12.451, 21.788, 22.350, 20.730
159597, 0.839, -0.228, 0.388, 3.784, -2.869, -8.423, 25.142, -0.286, -0.701, 0.440, 5.493, 10.986, 6.714, 22.033, -0.229, 0.753, -0.556, 3.235, 15.259, -8.972, 21.785, 22.350, 20.730
159629, 0.824, -0.257, 0.321, 9.033, -3.784, -13.184, 25.145, -0.272, -0.657, 0.461, 15.015, 15.259, 5.188, 22.051, -0.291, 0.711, -0.544, -6.165, 16.296, -17.090, 21.809, 22.310, 20.730
159664, 0.877, -0.226, 0.238, 10.803, -4.028, -19.226, 25.118, -0.303, -0.590, 0.533, 13.428, 25.635, 9.521, 22.006, -0.408, 0.691, -0.503, -8.545, 14.771, -12.878, 21.794, 22.310, 20.730
159696, 0.923, -0.210, 0.238, 8.240, 0.366, -19.836, 25.175, -0.333, -0.623, 0.610, -0.305, 17.700, 12.939, 22.033, -0.414, 0.733, -0.461, -13.855, 12.207, -2.930, 21.785, 22.310, 20.710
159728, 1.006, -0.202, 0.220, 7.690, 4.456, -16.602, 25.154, -0.383, -0.663, 0.637, -8.362, 9.949, 17.212, 22.036, -0.444, 0.782, -0.483, -9.583, 10.681, 7.568, 21.764, 22.290, 20.710
159762, 1.034, -0.161, 0.250, 5.798, 6.104, -13.123, 25.148, -0.407, -0.665, 0.657, -6.653, 2.075, 22.400, 22.033, -0.503, 0.769, -0.377, -10.742, 2.563, 19.104, 21.794, 22.290, 20.710
159794, 1.015, -0.102, 0.321, 1.892, 9.705, -4.333, 25.154, -0.474, -0.732, 0.581, -24.902, -21.118, 28.564, 22.030, -0.353, 0.819, -0.483, 16.113, 21.118, 43.335, 21.794, 22.290, 20.770
159826, 0.976, -0.125, 0.402, -1.770, 12.878, 1.770, 25.154, -0.512, -0.783, 0.499, -24.231, -22.522, 25.879, 22.042, -0.218, 0.865, -0.446, -14.526, -1.221, 44.495, 21.767, 22.370, 20.770
159861, 1.020, -0.057, 0.408, -3.967, 3.540, 10.437, 25.175, -0.552, -0.811, 0.503, -3.052, -29.602, 13.733, 22.006, -0.194, 0.922, -0.413, -8.484, 6.531, 0.244, 21.806, 22.370, 20.770
159893, 1.010, -0.124, 0.410, -5.737, -4.944, 15.259, 25.142, -0.495, -0.816, 0.494, -7.446, -30.151, 1.282, 22.036, -0.298, 0.842, -0.462, 49.927, -21.729, 70.190, 21.797, 22.370, 20.750
159927, 1.040, -0.289, 0.365, -9.338, -5.798, 11.292, 25.157, -0.372, -0.816, 0.543, 0.000, -20.203, -6.287, 22.018, -0.092, 0.938, -0.699, 58.044, -15.503, 71.533, 21.800, 22.350, 20.750
159959, 1.021, -0.307, 0.375, -5.981, -2.808, 10.132, 25.148, -0.353, -0.806, 0.609, 11.047, -8.118, -9.644, 22.015, -0.298, 0.878, -0.653, 6.836, -1.404, -29.358, 21.785, 22.350, 20.750
159991, 1.036, -0.311, 0.349, -1.831, -3.845, 7.324, 25.130, -0.316, -0.799, 0.600, 5.066, -4.700, -5.432, 22.012, -0.311, 0.877, -0.650, 15.808, 6.897, -13.489, 21.803, 22.350, 20.750
160026, 1.014, -0.303, 0.346, 0.061, -3.357, 2.625, 25.133, -0.330, -0.760, 0.593, 7.629, -2.075, -0.549, 22.006, -0.279, 0.856, -0.617, 10.925, 4.456, -3.052, 21.794, 22.310, 20.750
160058, 0.978, -0.260, 0.390, 2.258, -4.272, 0.305, 25.145, -0.340, -0.766, 0.556, 0.549, -1.770, 4.761, 21.988, -0.228, 0.859, -0.593, 4.822, 3.906, -9.399, 21.836, 22.310, 20.750
160090, 0.929, -0.227, 0.421, 3.418, -9.094, 1.099, 25.163, -0.339, -0.788, 0.485, -1.343, -7.263, 14.160, 22.018, -0.233, 0.834, -0.567, 2.258, -6.287, -2.258, 21.803, 22.310, 20.730
160125, 0.907, -0.244, 0.422, 5.066, -16.357, -0.671, 25.151, -0.323, -0.767, 0.455, 5.676, -10.437, 23.010, 22.012, -0.291, 0.874, -0.540, -8.545, -7.507, -25.024, 21.809, 22.290, 20.730
160158, 0.839, -0.194, 0.344, 6.958, -20.996, -3.906, 25.154, -0.344, -0.692, 0.489, 15.869, -11.414, 30.212, 22.006, -0.522, 0.632, -0.424, 5.981, -41.992, -0.183, 21.803, 22.290, 20.730
160191, 0.910, -0.143, 0.344, 5.981, -26.489, -1.709, 25.139, -0.442, -0.695, 0.480, 6.714, -10.132, 38.635, 22.009, -0.137, 0.851, -0.462, 50.476, -54.810, 88.684, 21.788, 22.290, 20.770
160226, 0.895, -0.063, 0.434, 2.686, -26.489, 1.770, 25.133, -0.478, -0.712, 0.386, -0.977, -28.381, 41.077, 22.006, -0.049, 0.714, -0.415, 49.072, -147.583, 88.379, 21.797, 22.350, 20.770
160259, 0.867, -0.033, 0.394, -8.972, -32.776, 0.610, 25.160, -0.477, -0.723, 0.385, 0.488, -35.034, 48.218, 21.985, 0.177, 0.956, -0.701, 54.810, 24.353, -96.863, 21.776, 22.350, 20.750
160294, 0.941, -0.085, 0.394, -23.682, -24.719, -5.798, 25.169, -0.548, -0.734, 0.390, 16.113, -40.283, 46.326, 22.003, -0.115, 0.926, -0.493, 37.476, 36.072, -38.757, 21.809, 22.350, 20.750
160327, 0.971, -0.277, 0.271, -21.423, -17.883, 0.916, 25.148, -0.458, -0.679, 0.561, 33.386, -26.917, 23.621, 21.985, -0.129, 0.818, -0.640, 42.480, 120.972, 7.690, 21.815, 22.290, 20.750
160360, 1.036, -0.300, 0.243, -12.756, -16.846, 5.432, 25.142, -0.355, -0.698, 0.609, 22.156, -13.367, 8.545, 21.997, -0.259, 0.752, -0.704, 43.396, 131.104, 20.813, 21.788, 22.290, 20.710
160395, 1.033, -0.292, 0.275, -3.540, -13.306, 4.028, 25.154, -0.394, -0.641, 0.622, 26.855, -0.122, 30.029, 22.000, -0.085, 0.804, -0.815, -1.953, 24.536, 43.152, 21.794, 22.290, 20.710
160428, 1.039, -0.194, 0.233, -3.601, -8.118, 4.700, 25.142, -0.460, -0.632, 0.726, 7.324, 0.183, 49.500, 22.003, 0.028, 0.850, -0.641, -34.302, -4.089, 16.541, 21.815, 22.250, 20.710
160461, 0.974, -0.267, 0.275, -3.967, -0.244, 2.991, 25.151, -0.425, -0.663, 0.521, -30.029, -14.160, 16.602, 21.985, -0.001, 0.767, -0.634, -9.094, -6.104, 5.554, 21.812, 22.250, 20.750
160496, 0.910, -0.289, 0.324, -3.601, 1.953, 3.113, 25.157, -0.368, -0.731, 0.472, -7.446, -6.470, -4.456, 22.003, -0.073, 0.713, -0.765, -3.784, -10.254, 12.085, 21.800, 22.250, 20.750
160529, 0.889, -0.269, 0.425, -7.202, 3.357, -3.235, 25.133, -0.410, -0.776, 0.383, 10.254, 5.188, -8.728, 21.991, 0.047, 0.701, -0.746, 10.681, 18.188, 26.611, 21.797, 22.230, 20.750
160564, 0.820, -0.220, 0.402, -7.751, 3.601, -7.385, 25.145, -0.452, -0.691, 0.387, 13.306, 5.127, -5.005, 21.988, 0.199, 0.712, -0.535, -0.793, -13.000, 12.329, 21.824, 22.230, 20.710
160597, 0.888, -0.251, -0.101, 0.000, 14.404, -15.991, 25.163, -0.243, -0.367, 0.764, 51.758, -8.301, -26.245, 21.991, -0.269, 0.691, -0.414, -2.686, 21.545, -5.371, 21.821, 22.230, 20.710
160630, 0.785, -0.188, 0.248, -0.671, 11.292, -3.113, 25.175, -0.364, -0.518, 0.500, -16.296, 3.967, -26.367, 21.991, -0.152, 0.634, -0.610, 24.719, 49.561, 17.883, 21.818, 22.170, 20.710
160665, 0.871, -0.191, 0.278, -7.385, 13.916, -1.892, 25.142, -0.404, -0.659, 0.487, -1.526, 1.038, -19.775, 21.970, 0.097, 0.741, -0.589, 15.564, 11.536, 18.677, 21.812, 22.170, 20.710
160698, 0.833, -0.169, 0.353, -8.789, 11.536, 0.305, 25.118, -0.414, -0.653, 0.491, -5.554, 3.784, -13.855, 21.961, 0.127, 0.724, -0.598, 12.329, -2.808, 10.376, 21.776, 22.170, 20.710
160731, 0.857, -0.207, 0.412, -17.151, 13.245, 5.981, 25.100, -0.381, -0.772, 0.393, -5.737, -6.165, -32.776, 21.970, 0.062, 0.691, -0.700, 15.747, -11.963, 3.845, 21.797, 22.130, 20.710
160766, 0.863, -0.405, 0.285, -23.926, 12.329, 1.404, 25.139, -0.182, -0.750, 0.554, 26.672, -4.883, -59.998, 21.955, -0.051, 0.696, -0.851, 10.742, -16.235, -6.470, 21.812, 22.130, 20.730
160799, 0.943, -0.525, 0.202, -13.550, 8.423, -11.658, 25.127, -0.100, -0.642, 0.742, 45.593, 8.789, -61.340, 21.973, -0.062, 0.750, -0.855, -6.714, -22.400, -16.663, 21.809, 22.130, 20.730
160832, 1.025, -0.477, 0.229, 6.042, 4.333, -13.855, 25.112, -0.156, -0.572, 0.852, 21.179, 7.812, -18.494, 21.973, -0.175, 0.771, -0.845, -11.536, 9.888, -13.916, 21.797, 22.110, 20.730
160867, 1.138, -0.284, 0.198, 29.602, -4.700, -13.672, 25.106, -0.410, -0.606, 0.919, -3.540, -2.136, 22.522, 21.985, -0.096, 1.003, -0.672, -17.334, 20.264, -14.160, 21.809, 22.110, 20.730
160900, 1.287, -0.021, 0.288, 38.330, -6.653, -4.822, 25.097, -0.693, -0.720, 0.855, -21.484, -11.414, 38.086, 21.994, -0.121, 1.063, -0.506, -7.629, 37.415, -20.630, 21.800, 22.110, 20.730
160935, 1.250, 0.044, 0.295, 25.513, -3.296, 13.000, 25.109, -0.696, -0.860, 0.717, -29.907, -28.625, 13.733, 21.991, -0.146, 0.995, -0.516, 15.869, 30.701, -22.522, 21.824, 21.970, 20.730
160968, 1.141, -0.117, 0.276, 8.118, 0.122, 27.039, 25.130, -0.472, -0.797, 0.708, 0.000, -29.663, -24.780, 21.979, -0.147, 0.911, -0.665, 30.151, 19.592, -18.433, 21.815, 21.970, 20.710
161001, 1.074, -0.259, 0.310, -0.610, 0.610, 31.372, 25.124, -0.300, -0.771, 0.687, -1.831, -25.818, -20.081, 21.958, -0.104, 0.833, -0.758, 33.936, 5.737, -15.442, 21.788, 21.970, 20.710
161036, 0.969, -0.346, 0.289, -1.038, -4.211, 27.039, 25.130, -0.200, -0.700, 0.640, 0.732, -23.743, -6.897, 21.985, -0.086, 0.766, -0.762, 26.245, -2.930, -16.663, 21.812, 21.950, 20.710
161069, 0.882, -0.324, 0.269, 1.160, -8.545, 20.996, 25.106, -0.164, -0.647, 0.533, -2.563, -16.296, -6.592, 21.976, -0.137, 0.601, -0.706, 21.362, 20.874, -11.414, 21.791, 21.950, 20.710
161102, 0.742, -0.310, 0.279, 3.601, -11.108, 14.404, 25.121, -0.117, -0.596, 0.447, -2.197, -10.498, 4.578, 21.964, -0.032, 0.547, -0.652, 20.447, 17.395, 1.953, 21.821, 21.950, 20.710
161137, 0.653, -0.289, 0.326, 4.944, -18.066, 11.597, 25.142, -0.087, -0.547, 0.359, -6.409, -6.836, 35.095, 21.958, 0.051, 0.506, -0.656, 15.991, 18.066, 3.052, 21.785, 21.890, 20.710
161170, 0.575, -0.309, 0.305, 8.423, -18.860, 2.991, 25.118, -0.083, -0.515, 0.337, -8.606, -5.737, 63.965, 21.952, 0.036, 0.460, -0.638, 3.662, 12.085, 5.188, 21.794, 21.890, 20.730
161205, 0.597, -0.278, 0.372, 6.836, -24.292, 1.099, 25.112, -0.138, -0.603, 0.255, -12.451, -11.902, 84.534, 21.967, 0.110, 0.458, -0.651, -1.404, 2.869, 13.184, 21.815, 21.890, 20.730
161238, 0.593, -0.204, 0.527, -1.953, -23.865, 0.427, 25.112, -0.241, -0.660, 0.101, -15.686, -10.925, 111.877, 21.940, 0.233, 0.448, -0.606, 7.751, -2.441, 18.066, 21.785, 21.910, 20.730
161271, 0.604, -0.458, 0.284, -23.437, -20.386, -4.761, 25.136, -0.225, -0.818, 0.392, 26.978, -0.488, 112.244, 21.982, 0.024, 0.526, -0.880, -5.798, -28.137, -5.310, 21.794, 21.910, 20.730
161306, 0.962, -0.596, 0.182, -25.330, -5.554, -12.024, 25.133, -0.147, -0.597, 0.859, 32.776, -10.376, 111.206, 21.976, -0.147, 0.887, -0.972, -20.874, -47.913, -12.085, 21.794, 21.910, 20.730
161339, 1.508, -0.326, 0.103, 5.859, -2.197, -26.306, 25.118, -0.750, -0.518, 1.209, -29.480, -43.823, 143.616, 21.967, -0.253, 1.169, -0.686, -34.668, -26.062, -10.376, 21.803, 21.910, 20.730
161372, 1.528, -0.047, 0.047, 16.785, 3.357, -20.752, 25.121, -0.972, -0.631, 0.956, -98.816, -9.644, 93.567, 21.985, -0.397, 1.009, -0.451, -7.751, -5.249, -1.892, 21.800, 21.910, 20.670
161407, 1.195, -0.214, 0.117, -11.108, 28.931, 15.991, 25.118, -0.693, -0.655, 0.766, -39.734, -5.798, 5.249, 21.964, -0.186, 0.877, -0.638, 37.109, -6.287, 5.859, 21.794, 21.850, 20.670
161440, 1.004, -0.314, 0.342, -9.949, 25.635, 24.841, 25.151, -0.552, -0.650, 0.593, -31.677, -4.761, -21.484, 21.985, -0.008, 0.835, -0.818, 37.781, -1.099, 5.249, 21.794, 21.850, 20.670
161473, 0.919, -0.409, 0.339, -1.099, 17.212, 15.442, 25.121, -0.456, -0.655, 0.543, -39.612, -16.235, 12.451, 21.982, 0.040, 0.823, -0.825, 19.714, -4.272, -4.333, 21.779, 21.850, 20.730
161508, 0.949, -0.338, 0.292, 12.817, 3.235, 5.859, 25.115, -0.509, -0.630, 0.554, -34.668, -21.423, 28.259, 21.979, -0.026, 0.836, -0.720, 2.747, 0.610, -20.630, 21.785, 21.910, 20.730
161541, 0.996, -0.224, 0.244, 18.372, -8.484, 6.287, 25.133, -0.613, -0.575, 0.576, -19.287, -20.752, 21.912, 21.961, -0.080, 0.840, -0.598, 2.075, -3.418, -33.752, 21.794, 21.910, 20.730
161576, 1.056, -0.107, 0.206, 16.296, -10.742, 11.475, 25.127, -0.667, -0.524, 0.626, -8.972, -16.968, 5.737, 21.955, -0.199, 0.860, -0.516, 6.470, 2.319, -30.396, 21.803, 21.910, 20.710
161609, 1.060, -0.112, 0.150, 9.888, -12.146, 16.785, 25.115, -0.652, -0.494, 0.665, -5.249, -15.137, -7.324, 21.964, -0.238, 0.858, -0.483, 16.357, 10.742, -23.132, 21.782, 21.850, 20.710
161642, 1.083, -0.146, 0.119, 2.747, -4.639, 22.095, 25.118, -0.572, -0.492, 0.708, -7.324, -10.681, -20.447, 21.979, -0.286, 0.850, -0.533, 22.644, 1.831, -18.616, 21.800, 21.850, 20.710
161677, 1.101, -0.274, 0.145, -7.446, 2.136, 26.978, 25.118, -0.546, -0.648, 0.672, -18.005, -3.845, -9.216, 21.970, -0.311, 0.856, -0.626, 40.405, -6.226, -15.991, 21.770, 21.850, 20.710
161711, 1.116, -0.448, 0.146, -14.465, 10.437, 18.799, 25.124, -0.458, -0.786, 0.702, -4.822, 5.005, -23.132, 21.988, -0.384, 0.820, -0.882, 61.401, -3.174, -18.433, 21.779, 21.850, 20.710
161744, 1.101, -0.596, 0.067, -13.611, 18.372, 6.287, 25.142, -0.292, -0.753, 0.773, 23.804, 9.521, -41.565, 22.000, -0.515, 0.729, -0.990, 41.870, -9.766, -11.902, 21.761, 21.850, 20.770
161779, 1.042, -0.545, 0.152, 0.977, 21.240, -11.414, 25.124, -0.253, -0.664, 0.735, 16.052, 21.790, -10.925, 22.012, -0.382, 0.735, -0.904, 3.296, -27.527, 6.042, 21.752, 21.850, 20.770
161812, 0.956, -0.368, 0.221, 15.869, 12.573, -23.437, 25.130, -0.416, -0.568, 0.618, 2.380, 17.395, 39.490, 22.003, -0.159, 0.759, -0.745, -11.353, -8.972, 8.789, 21.767, 21.850, 20.770
161847, 0.915, -0.219, 0.185, 19.897, 8.484, -26.672, 25.130, -0.552, -0.526, 0.559, 2.380, 16.113, 34.607, 22.000, -0.180, 0.726, -0.576, -24.963, -21.057, -3.784, 21.770, 21.850, 20.750
161880, 0.871, -0.135, 0.215, 9.216, 6.165, -19.226, 25.148, -0.597, -0.505, 0.536, 4.822, 13.611, 13.367, 22.015, -0.235, 0.690, -0.511, -31.982, -28.015, -11.108, 21.785, 21.850, 20.750
161913, 0.853, -0.158, 0.239, 2.625, -2.319, -14.404, 25.142, -0.547, -0.437, 0.519, -15.137, 8.057, 4.395, 22.006, -0.300, 0.614, -0.487, -11.108, -17.395, 4.761, 21.764, 21.790, 20.750
161948, 0.805, -0.158, 0.226, -4.883, -8.972, -7.996, 25.142, -0.494, -0.531, 0.411, -17.883, 5.920, 2.686, 21.997, -0.243, 0.596, -0.488, -2.075, -16.846, 4.150, 21.776, 21.790, 20.730
161981, 0.773, -0.194, 0.237, -11.292, -12.756, -4.639, 25.151, -0.450, -0.543, 0.361, 7.751, 6.592, -12.024, 22.027, -0.155, 0.594, -0.515, 8.362, -15.320, 5.981, 21.785, 21.790, 20.730
162014, 0.730, -0.209, 0.269, -9.460, -16.602, -3.906, 25.127, -0.419, -0.478, 0.360, 24.902, 10.376, -25.269, 21.994, -0.183, 0.541, -0.518, 2.319, -4.150, 4.395, 21.800, 21.770, 20.730
162050, 0.665, -0.165, 0.353, -2.991, -24.841, 0.488, 25.130, -0.417, -0.453, 0.255, 7.080, 5.554, -1.343, 21.991, 0.067, 0.468, -0.363, 3.113, 19.165, 13.611, 21.770, 21.770, 20.710
162083, 0.556, -0.121, 0.514, 0.488, -34.424, 7.996, 25.112, -0.527, -0.517, 0.075, -10.925, -2.014, 28.137, 22.003, 0.131, 0.429, -0.695, 67.383, 70.984, 43.030, 21.788, 21.770, 20.710
162116, 0.520, -0.114, 0.398, -0.122, -38.330, -3.906, 25.106, -0.549, -0.466, 0.174, 26.550, -33.508, 7.507, 22.024, 0.348, 0.669, -0.653, -54.077, -16.541, 28.992, 21.755, 21.790, 20.710
162151, 0.792, 0.002, 0.169, -7.324, -34.058, 3.845, 25.118, -0.588, -0.416, 0.474, 52.124, -42.847, 3.845, 22.024, 0.012, 0.759, -0.283, -41.992, 23.804, -12.512, 21.767, 21.790, 20.730
162184, 1.032, -0.169, 0.100, -23.376, -28.381, 20.874, 25.124, -0.590, -0.576, 0.716, 41.199, -53.345, 11.292, 22.021, -0.384, 0.827, -0.557, 17.944, -14.587, -29.236, 21.737, 21.790, 20.730
162220, 1.201, -0.432, -0.114, -27.710, -17.944, 22.278, 25.112, -0.443, -0.623, 0.931, 47.852, -49.133, -35.645, 22.003, -0.481, 0.837, -0.712, 40.649, 6.958, -18.066, 21.743, 21.850, 20.730
162253, 1.229, -0.598, -0.133, -18.433, 5.249, 10.498, 25.124, -0.220, -0.571, 0.952, 44.189, -18.738, -70.190, 22.012, -0.471, 0.808, -0.808, 30.762, -11.169, -14.526, 21.773, 21.850, 20.710
162286, 1.049, -0.466, 0.049, -2.380, -0.427, 8.484, 25.109, -0.255, -0.588, 0.867, 12.939, -7.141, -10.254, 21.997, -0.409, 0.778, -0.855, 21.973, 8.972, -0.671, 21.776, 21.850, 20.710
162322, 1.091, -0.444, 0.009, 5.981, 17.090, -4.333, 25.109, -0.339, -0.549, 0.880, -5.554, -16.174, 27.893, 22.024, -0.312, 0.825, -0.744, 3.662, 2.258, -1.343, 21.761, 21.850, 20.710
162353, 1.171, -0.337, 0.240, 6.409, 9.888, 7.324, 25.091, -0.539, -0.699, 0.752, -33.081, -9.338, 55.481, 22.030, -0.236, 0.816, -0.802, 10.132, 8.240, 2.747, 21.758, 21.850, 20.670
162385, 1.069, -0.465, 0.293, -2.563, 8.667, 12.268, 25.121, -0.587, -0.822, 0.645, -31.189, -14.282, 53.223, 22.042, -0.234, 0.802, -0.995, 21.606, 3.540, 5.737, 21.746, 21.850, 20.670
162419, 1.130, -0.579, 0.290, -6.653, 1.526, -0.977, 25.130, -0.520, -0.912, 0.678, 0.854, -2.502, 5.188, 22.012, -0.244, 0.829, -1.069, 6.958, -3.845, 4.150, 21.764, 21.850, 20.670
162451, 1.142, -0.612, 0.159, -6.531, 0.610, -18.005, 25.121, -0.390, -0.867, 0.834, 36.255, 2.686, -23.437, 22.036, -0.403, 0.839, -1.027, -6.592, 1.770, 5.066, 21.749, 21.850, 20.710
162485, 1.284, -0.589, 0.015, 4.089, 14.526, -31.921, 25.112, -0.349, -0.643, 1.123, 64.392, -6.470, -24.048, 22.003, -0.382, 0.995, -0.899, -16.663, -0.427, 1.770, 21.746, 21.850, 20.710
162517, 1.446, -0.348, 0.028, 27.710, 16.357, -28.015, 25.130, -0.517, -0.454, 1.230, 16.785, -0.122, 33.203, 22.009, -0.341, 1.151, -0.725, -28.198, 18.005, -7.874, 21.758, 21.910, 20.710
162549, 1.493, -0.119, 0.089, 40.405, 8.362, -14.038, 25.097, -0.779, -0.416, 1.147, -22.156, 5.615, 71.045, 22.006, -0.384, 1.123, -0.541, -19.592, 32.104, -4.089, 21.767, 21.910, 20.710
162583, 1.302, -0.051, 0.059, 27.100, 9.583, 5.554, 25.121, -0.812, -0.476, 0.961, -45.166, 8.179, 32.837, 22.018, -0.392, 0.962, -0.446, 3.601, 29.358, -10.132, 21.758, 21.910, 20.710
162615, 1.130, -0.107, 0.099, 8.850, 14.832, 21.484, 25.103, -0.651, -0.485, 0.793, -32.959, 9.277, -28.931, 22.021, -0.305, 0.792, -0.509, 30.762, 26.001, -9.033, 21.737, 21.890, 20.710
162647, 0.944, -0.214, 0.168, -1.160, 15.137, 34.119, 25.127, -0.465, -0.487, 0.650, -23.987, 9.766, -43.884, 22.012, -0.177, 0.730, -0.607, 49.011, 17.517, -5.859, 21.743, 21.890, 20.730
162681, 0.822, -0.293, 0.181, -0.854, 16.052, 29.541, 25.121, -0.356, -0.456, 0.583, -23.071, 2.441, -31.372, 22.003, -0.114, 0.701, -0.674, 39.001, 3.784, -16.479, 21.776, 21.890, 20.730
162713, 0.793, -0.335, 0.171, 2.747, 10.193, 19.165, 25.106, -0.299, -0.479, 0.512, -24.109, -0.671, -18.982, 21.997, -0.010, 0.660, -0.639, 31.128, -23.621, -44.373, 21.749, 21.850, 20.730
162745, 0.713, -0.344, 0.163, 6.714, 1.831, 14.038, 25.133, -0.245, -0.502, 0.468, -17.456, 2.930, -11.658, 22.021, -0.067, 0.533, -0.640, 32.593, -38.208, -60.242, 21.758, 21.850, 20.710
162779, 0.649, -0.349, 0.153, 8.789, 2.747, 9.033, 25.109, -0.213, -0.520, 0.402, -2.258, 5.859, -6.165, 22.027, -0.264, 0.437, -0.658, 5.127, -37.170, -58.411, 21.761, 21.850, 20.710
162811, 0.681, -0.318, 0.261, 4.822, -6.226, -0.122, 25.130, -0.276, -0.505, 0.321, 7.019, 11.902, 7.629, 22.042, -0.218, 0.472, -0.654, -8.911, -30.823, -5.615, 21.767, 21.770, 20.710
162845, 0.573, -0.294, 0.263, 9.705, -18.127, -13.367, 25.124, -0.299, -0.467, 0.314, 11.658, 16.357, 14.038, 22.021, -0.231, 0.389, -0.646, -56.091, 37.292, -24.475, 21.728, 21.770, 20.710
162877, 0.528, -0.262, 0.183, 9.277, -20.020, -18.188, 25.103, -0.283, -0.417, 0.337, 26.001, 9.949, -0.427, 22.036, -0.278, 0.368, -0.464, -65.125, 28.076, -2.319, 21.749, 21.770, 20.710
162909, 0.636, -0.180, 0.203, 4.211, -18.250, -22.888, 25.130, -0.330, -0.394, 0.392, 29.541, 7.080, 13.367, 22.006, -0.278, 0.521, -0.441, -29.602, 9.216, -3.784, 21.722, 21.670, 20.710
162943, 0.795, -0.101, 0.168, 0.854, -19.226, -24.414, 25.109, -0.537, -0.404, 0.604, 24.231, -9.644, 43.884, 22.024, -0.202, 0.735, -0.428, -23.926, -13.184, -8.484, 21.743, 21.670, 20.730
162975, 1.104, -0.052, 0.087, -7.202, -12.817, -21.790, 25.109, -0.704, -0.422, 0.754, 21.057, -17.517, 33.752, 22.042, -0.354, 0.875, -0.408, -29.419, -0.122, -27.649, 21.722, 21.670, 20.730
163007, 1.271, -0.140, 0.071, -23.926, 5.615, -8.301, 25.121, -0.686, -0.516, 0.805, 9.094, 3.662, -12.817, 22.027, -0.519, 0.820, -0.441, -23.865, 15.686, -15.808, 21.725, 21.730, 20.730
163041, 1.058, -0.310, 0.154, -35.889, 12.085, 2.014, 25.136, -0.522, -0.605, 0.756, 14.648, 18.188, -45.471, 22.021, -0.590, 0.781, -0.643, 15.320, 18.799, -10.071, 21.707, 21.730, 20.710
163074, 1.053, -0.389, 0.185, -26.550, 11.536, -7.751, 25.154, -0.385, -0.569, 0.743, 10.925, 13.916, -31.372, 22.039, -0.351, 0.830, -0.712, 18.066, -18.066, 22.034, 21.725, 21.730, 20.710
163108, 0.966, -0.427, 0.261, -10.315, 0.183, -9.399, 25.121, -0.433, -0.619, 0.682, -2.502, 13.550, 11.169, 22.012, -0.209, 0.797, -0.774, 1.587, -3.906, 8.118, 21.716, 21.730, 20.710
163140, 0.994, -0.339, 0.217, 5.859, -5.249, -12.939, 25.115, -0.497, -0.519, 0.702, -8.972, -1.221, 36.865, 22.039, -0.188, 0.839, -0.687, -14.160, 13.550, 1.404, 21.755, 21.730, 20.710
163172, 1.064, -0.244, 0.087, 15.564, -3.296, -12.695, 25.115, -0.546, -0.520, 0.782, -0.610, 0.488, 23.254, 22.030, -0.419, 0.783, -0.493, -26.306, 28.809, -16.357, 21.737, 21.730, 20.710
163206, 1.133, -0.199, 0.090, 7.629, 2.014, 3.662, 25.127, -0.592, -0.550, 0.856, 4.028, -3.235, 5.554, 22.039, -0.517, 0.829, -0.501, -3.845, 42.908, 6.897, 21.722, 21.790, 20.710
163239, 1.349, -0.373, 0.071, 2.197, 7.202, 12.085, 25.124, -0.571, -0.647, 1.002, -13.000, -4.395, 0.916, 22.036, -0.601, 0.996, -0.748, 15.320, 44.067, -3.418, 21.737, 21.790, 20.710
163271, 1.375, -0.432, 0.115, 4.272, 13.000, 4.700, 25.121, -0.554, -0.751, 0.936, -20.935, 6.409, -1.404, 22.015, -0.638, 1.002, -0.787, 6.165, 7.385, 3.540, 21.722, 21.790, 20.710
163305, 1.211, -0.408, 0.143, 3.906, 13.428, -1.343, 25.118, -0.550, -0.716, 0.847, -8.789, 10.071, -7.080, 22.012, -0.463, 0.886, -0.762, 11.719, 13.306, 7.568, 21.749, 21.790, 20.710
163337, 1.084, -0.441, 0.068, 6.226, 15.930, -4.944, 25.121, -0.390, -0.594, 0.776, 0.549, 17.029, -35.583, 22.030, -0.440, 0.760, -0.723, 4.150, 15.320, 9.888, 21.710, 21.790, 20.710
163369, 0.931, -0.407, 0.089, 13.306, 9.644, -7.446, 25.130, -0.279, -0.557, 0.692, -6.958, 20.691, -15.991, 22.030, -0.381, 0.671, -0.652, 1.343, 23.621, 10.803, 21.725, 21.790, 20.710
163404, 0.829, -0.318, 0.130, 16.418, 7.690, -9.033, 25.133, -0.306, -0.500, 0.599, -12.329, 13.794, 9.583, 22.015, -0.292, 0.627, -0.571, -6.104, 16.724, 15.381, 21.719, 21.790, 20.710
163436, 0.790, -0.268, 0.175, 19.348, 2.075, -8.545, 25.112, -0.380, -0.472, 0.508, -21.423, 9.644, 30.029, 22.033, -0.175, 0.635, -0.536, -7.263, 15.930, 12.329, 21.749, 21.790, 20.710
163470, 0.754, -0.218, 0.196, 25.879, -1.099, -13.489, 25.127, -0.438, -0.464, 0.458, -12.451, 6.470, 20.630, 22.030, -0.130, 0.635, -0.482, -11.353, 21.362, -4.944, 21.743, 21.790, 20.710
163502, 0.705, -0.122, 0.182, 29.236, -5.737, -13.306, 25.121, -0.495, -0.388, 0.465, -9.216, 4.150, -0.610, 22.015, -0.185, 0.602, -0.354, -11.108, 14.648, -10.132, 21.713, 21.850, 20.710
163534, 0.737, -0.048, 0.243, 27.893, -17.212, -0.854, 25.127, -0.453, -0.346, 0.369, -45.044, -3.662, 14.526, 22.024, -0.120, 0.533, -0.307, 2.197, 6.287, -12.268, 21.716, 21.850, 20.710
163569, 0.533, -0.087, 0.298, 26.550, -15.015, 12.146, 25.121, -0.444, -0.451, 0.227, -46.204, -7.996, 25.940, 22.027, -0.034, 0.541, -0.366, 18.616, -1.526, -3.479, 21.728, 21.850, 20.710
163601, 0.588, -0.002, 0.226, 24.048, -21.240, 7.446, 25.115, -0.490, -0.386, 0.282, 1.709, -30.396, 10.071, 22.021, 0.002, 0.613, -0.335, 7.141, -26.794, -15.930, 21.719, 21.890, 20.710
163633, 0.792, 0.000, 0.171, -1.587, -21.790, 22.705, 25.106, -0.586, -0.451, 0.421, 16.968, -34.668, 0.793, 21.997, -0.208, 0.630, -0.392, 8.972, 11.841, -61.401, 21.737, 21.890, 20.670
163667, 0.872, -0.225, 0.031, -23.132, -19.287, 32.288, 25.142, -0.473, -0.568, 0.747, 15.747, -52.307, -15.442, 22.027, -0.456, 0.802, -0.571, 15.991, -2.441, -43.579, 21.719, 21.890, 20.670
163699, 1.346, -0.514, -0.045, -23.743, 3.174, 23.499, 25.124, -0.374, -0.727, 0.952, 17.944, -42.297, -26.550, 22.033, -0.642, 0.917, -0.779, 4.639, 8.118, -54.993, 21.728, 21.850, 20.670
163734, 1.400, -0.593, 0.104, 9.033, 11.169, 16.174, 25.124, -0.369, -0.658, 1.027, 7.019, -17.029, -3.845, 22.000, -0.537, 1.018, -0.887, 13.489, 26.733, 4.211, 21.719, 21.850, 20.670
163766, 1.180, -0.377, 0.323, 29.968, -2.869, 6.165, 25.106, -0.499, -0.657, 0.706, -61.890, -16.418, 80.872, 22.006, -0.299, 0.985, -0.849, -2.808, 20.935, -4.395, 21.749, 21.850, 20.670
163799, 1.073, -0.399, 0.356, 25.391, -9.216, -4.089, 25.130, -0.689, -0.876, 0.500, -72.510, -12.634, 94.604, 22.045, -0.264, 0.841, -0.834, -11.414, 30.396, 3.357, 21.716, 21.850, 20.670
163834, 0.986, -0.490, 0.292, 14.282, -11.902, -13.794, 25.109, -0.561, -0.909, 0.429, -12.695, -6.042, 0.366, 22.048, -0.394, 0.705, -0.917, -15.991, 33.386, -8.362, 21.725, 21.850, 20.710
163867, 0.954, -0.619, 0.095, 12.939, -3.540, -31.433, 25.136, -0.210, -0.819, 0.644, 42.603, 6.531, -59.875, 22.051, -0.501, 0.695, -0.891, -28.442, 23.376, 1.160, 21.731, 21.850, 20.710
163900, 1.051, -0.562, 0.105, 30.334, -6.409, -38.635, 25.115, -0.195, -0.688, 0.823, 32.227, 9.521, -0.488, 22.024, -0.375, 0.811, -0.845, -47.852, 33.447, 7.324, 21.710, 21.890, 20.710
163935, 1.228, -0.388, -0.121, 55.847, 1.343, -49.377, 25.106, -0.392, -0.484, 1.096, 3.418, -7.751, 76.782, 22.021, -0.504, 0.959, -0.619, -72.144, 34.912, -0.061, 21.722, 21.890, 20.670
163968, 1.353, -0.018, 0.060, 72.815, 0.977, -30.823, 25.100, -0.750, -0.465, 0.970, -32.288, -6.958, 97.046, 22.033, -0.470, 1.013, -0.293, -68.787, 47.363, 8.118, 21.725, 21.890, 20.670
164001, 1.288, 0.143, 0.106, 56.702, -1.160, -8.179, 25.124, -0.975, -0.521, 0.781, -57.617, -11.719, 91.248, 22.048, -0.489, 0.992, -0.182, -24.963, 44.312, 0.244, 21.725, 21.850, 20.670
164036, 1.179, 0.049, 0.131, 23.315, 8.911, 9.033, 25.118, -0.817, -0.617, 0.629, -30.701, 2.136, -16.968, 22.021, -0.478, 0.832, -0.258, 17.761, 28.564, 5.249, 21.731, 21.850, 20.710
164069, 0.993, -0.119, 0.184, 0.854, 15.930, 18.921, 25.124, -0.529, -0.599, 0.538, -8.118, 11.597, -55.420, 22.024, -0.257, 0.771, -0.457, 41.443, 12.634, 18.005, 21.701, 21.890, 20.710
164104, 0.820, -0.264, 0.141, -1.770, 19.104, 18.677, 25.118, -0.380, -0.522, 0.539, -7.141, 10.742, -52.185, 22.024, -0.220, 0.708, -0.574, 37.476, 12.512, -3.357, 21.734, 21.890, 20.710
164137, 0.805, -0.236, 0.209, 3.906, 11.536, 20.874, 25.103, -0.337, -0.493, 0.458, -15.137, 5.554, -27.039, 22.039, -0.122, 0.640, -0.538, 25.635, 19.409, 0.000, 21.731, 21.890, 20.670
164170, 0.691, -0.216, 0.190, 9.583, 4.333, 19.043, 25.124, -0.341, -0.490, 0.393, -17.029, 0.183, -12.207, 22.039, -0.125, 0.597, -0.476, 20.630, 17.334, -7.507, 21.725, 21.850, 20.670
164205, 0.638, -0.185, 0.219, 14.282, -7.080, 19.287, 25.112, -0.327, -0.478, 0.279, -7.263, 1.526, -14.099, 22.045, -0.106, 0.541, -0.424, 14.160, 8.850, -0.671, 21.722, 21.850, 20.670
164238, 0.626, -0.118, 0.444, 14.709, -12.512, 27.954, 25.130, -0.447, -0.498, 0.139, -10.925, 7.446, 10.498, 22.036, 0.089, 0.538, -0.457, 3.479, -15.015, 20.142, 21.740, 21.850, 20.670
164271, 0.367, -0.130, 0.374, 8.179, -7.507, 15.137, 25.106, -0.409, -0.471, 0.118, 5.249, -12.878, -7.019, 22.054, 0.031, 0.437, -0.406, 14.832, 17.639, -30.701, 21.728, 21.890, 20.670
164306, 0.562, -0.228, 0.140, -8.057, -25.085, 11.719, 25.121, -0.241, -0.478, 0.350, 49.133, -26.367, -42.664, 22.033, -0.250, 0.516, -0.477, 15.930, 1.831, -23.987, 21.719, 21.890, 20.710
164339, 0.819, -0.297, 0.068, -12.329, -24.109, 14.709, 25.124, -0.273, -0.456, 0.733, 48.218, -39.551, 4.883, 22.042, -0.292, 0.791, -0.559, 2.869, -2.197, -33.020, 21.725, 21.890, 20.710
164372, 1.130, -0.295, 0.098, 3.540, -26.794, 6.104, 25.109, -0.511, -0.573, 0.853, 1.160, -57.800, 53.101, 22.024, -0.406, 0.971, -0.590, -18.127, 1.648, -71.167, 21.725, 21.910, 20.710
164407, 1.367, -0.253, -0.151, 14.343, -2.808, -3.418, 25.097, -0.526, -0.530, 0.912, 1.892, -35.400, 16.357, 22.036, -0.704, 0.893, -0.423, -20.935, 6.226, -30.334, 21.710, 21.910, 20.670
164440, 1.185, -0.160, 0.134, -1.526, 8.545, 12.268, 25.097, -0.563, -0.687, 0.716, -3.784, 2.625, -3.174, 22.045, -0.500, 0.855, -0.463, 18.494, 4.761, 32.532, 21.731, 21.910, 20.670
164475, 0.969, -0.354, 0.212, -14.343, 0.305, 13.062, 25.106, -0.468, -0.684, 0.636, 8.118, -10.620, -3.479, 22.036, -0.257, 0.825, -0.731, 19.958, -11.169, 9.644, 21.716, 21.890, 20.670
164508, 1.037, -0.437, 0.278, -6.409, 0.488, 2.747, 25.103, -0.399, -0.699, 0.655, 7.629, -9.399, -7.568, 22.042, -0.284, 0.911, -0.718, 0.977, -8.240, -19.409, 21.725, 21.890, 20.710
164541, 1.062, -0.404, 0.214, 5.798, 0.122, -4.822, 25.094, -0.443, -0.698, 0.723, 12.939, -9.338, 10.681, 22.024, -0.332, 0.931, -0.712, -8.850, 4.700, -21.362, 21.707, 21.890, 20.710
164576, 1.245, -0.363, 0.294, 18.066, -5.432, -0.977, 25.094, -0.549, -0.709, 0.812, 2.930, -11.292, 33.325, 22.030, -0.220, 1.017, -0.770, 12.817, 8.057, 3.723, 21.719, 21.910, 20.710
164609, 1.319, -0.415, 0.191, 26.245, -13.550, -7.507, 25.112, -0.649, -0.767, 0.996, -3.418, -19.714, 49.072, 22.048, -0.533, 1.232, -0.851, -23.865, 30.945, -33.203, 21.722, 21.910, 20.670
164642, 1.696, -0.374, -0.094, 36.743, -2.319, -24.719, 25.094, -0.647, -0.759, 1.322, 37.109, -10.132, 17.700, 22.054, -0.867, 1.342, -0.634, -43.884, 30.823, -40.833, 21.716, 21.910, 20.670
164677, 1.750, -0.136, 0.158, 36.133, 2.563, -10.071, 25.094, -0.895, -0.746, 1.216, 14.832, 14.771, 18.921, 22.024, -0.772, 1.164, -0.462, -3.479, 30.762, 6.714, 21.734, 21.890, 20.670
164710, 1.326, -0.269, -0.019, 15.198, 23.010, -8.484, 25.097, -0.748, -0.670, 0.958, -9.155, 18.188, -88.013, 22.039, -0.692, 0.884, -0.525, 9.827, 25.085, 19.348, 21.716, 21.890, 20.650
164745, 0.997, -0.346, -0.013, 2.319, 43.396, -11.780, 25.109, -0.255, -0.528, 0.702, 42.480, 66.833, -203.796, 22.039, -0.535, 0.706, -0.581, 18.494, 26.550, 45.654, 21.692, 21.890, 20.650
164778, 0.797, -0.322, 0.010, 6.287, 45.959, -24.109, 25.103, -0.083, -0.408, 0.659, 50.415, 88.684, -164.856, 22.054, -0.352, 0.605, -0.490, -0.916, 13.611, 45.532, 21.725, 21.830, 20.650
164811, 0.740, -0.179, 0.143, 5.737, 41.199, -22.461, 25.124, -0.157, -0.301, 0.592, 12.817, 74.951, -84.717, 22.039, -0.193, 0.582, -0.386, -4.883, 7.263, 45.471, 21.713, 21.830, 20.670
164846, 0.625, -0.124, 0.243, 2.380, 33.569, -19.226, 25.109, -0.266, -0.367, 0.439, -36.499, 43.579, -29.602, 22.045, -0.076, 0.506, -0.325, 0.488, 4.028, 33.630, 21.743, 21.830, 20.670
164879, 0.590, -0.051, 0.285, -2.258, 22.339, -11.780, 25.088, -0.245, -0.528, 0.286, -44.312, 25.330, 5.615, 22.057, -0.011, 0.519, -0.311, 27.954, -5.310, 12.085, 21.698, 21.890, 20.670
164912, 0.500, -0.125, 0.437, -2.319, 1.648, -10.254, 25.100, -0.266, -0.565, 0.066, -17.090, 35.278, 8.118, 22.036, 0.198, 0.539, -0.458, 20.020, -16.724, 8.118, 21.701, 21.890, 20.730
164947, 0.278, 0.050, 0.358, 8.484, -1.892, -20.691, 25.106, -0.477, -0.280, 0.273, 52.002, 30.823, -25.696, 22.033, 0.215, 0.601, -0.251, -13.367, -29.541, -12.878, 21.719, 21.890, 20.730
164980, 0.531, 0.139, 0.186, 12.024, -32.715, -5.798, 25.088, -0.437, -0.329, 0.375, 26.917, -31.555, -9.644, 22.036, 0.038, 0.511, -0.084, -18.555, -15.869, -52.185, 21.722, 21.890, 20.730
165013, 0.747, -0.004, 0.144, -3.235, -39.795, 28.137, 25.088, -0.377, -0.419, 0.525, 20.813, -56.030, 1.282, 22.030, -0.437, 0.701, -0.232, 9.644, 6.409, -50.903, 21.722, 21.890, 20.650
165048, 0.905, -0.139, 0.070, -11.780, -40.894, 24.780, 25.091, -0.269, -0.582, 0.637, 26.672, -56.396, 7.568, 22.048, -0.697, 0.688, -0.362, 8.118, -30.334, -39.856, 21.725, 21.890, 20.650
165081, 1.087, -0.298, 0.104, -18.677, -34.241, 15.259, 25.088, -0.220, -0.595, 0.723, 21.484, -37.231, 3.479, 22.039, -0.972, 0.628, -0.404, 25.330, -65.674, -40.344, 21.722, 21.830, 20.650
165116, 1.070, -0.216, 0.107, -32.410, -1.831, 16.296, 25.106, -0.318, -0.682, 0.780, 14.038, -19.287, 17.334, 22.006, -0.786, 0.539, -0.496, 117.554, -160.950, 42.175, 21.692, 21.830, 20.650
165149, 1.114, -0.182, 0.208, -46.631, -9.033, 26.978, 25.106, -0.284, -0.729, 0.747, 12.573, -26.733, 45.105, 22.015, -0.173, 0.623, -0.526, 125.793, 87.097, 18.982, 21.710, 21.830, 20.650
165182, 1.199, -0.480, 0.271, -74.219, 9.399, 13.428, 25.085, -0.306, -0.796, 0.912, 25.696, -62.500, 58.838, 21.997, 0.125, 1.123, -1.082, 62.378, -52.612, 123.657, 21.713, 21.770, 20.650
165224, 1.305, -0.876, 0.285, -27.771, 12.329, 3.052, 25.103, -0.264, -0.866, 1.024, 6.470, -34.058, 27.405, 22.021, -0.249, 1.142, -1.286, 16.846, 20.142, 35.583, 21.692, 21.770, 20.670
165257, 1.450, -0.634, 0.034, 16.785, 4.456, -27.100, 25.106, -0.189, -0.690, 1.216, 29.236, 0.061, -29.297, 22.027, -0.487, 1.103, -0.942, -36.743, 29.419, 13.184, 21.698, 21.730, 20.670
165289, 1.548, -0.438, -0.130, 33.447, 11.292, -32.715, 25.100, -0.267, -0.542, 1.362, 17.761, 11.719, -27.527, 22.018, -0.751, 1.082, -0.662, -47.546, 48.767, 14.648, 21.695, 21.730, 20.670
165323, 1.406, -0.132, 0.081, 31.921, 16.052, -13.550, 25.103, -0.475, -0.579, 1.187, -39.429, 20.508, 33.325, 22.009, -0.375, 1.043, -0.494, -4.944, 52.185, 36.255, 21.716, 21.730, 20.650
165355, 1.280, -0.124, 0.151, 24.353, 15.808, 5.981, 25.091, -0.539, -0.630, 0.980, -66.406, -0.061, 55.542, 22.012, -0.045, 1.097, -0.542, 25.085, 32.532, 4.639, 21.710, 21.730, 20.650
165389, 1.110, -0.165, 0.222, 19.043, 21.606, 13.794, 25.118, -0.503, -0.629, 0.769, -55.786, -1.587, 26.550, 22.000, 0.089, 1.002, -0.597, 20.447, 7.751, -51.697, 21.704, 21.730, 20.650
165422, 0.971, -0.122, 0.177, 19.165, 22.400, 18.005, 25.127, -0.418, -0.573, 0.690, -37.292, -4.761, -6.653, 22.012, -0.186, 0.760, -0.518, 3.418, -29.846, -79.407, 21.728, 21.730, 20.610
165454, 0.905, -0.144, 0.200, 13.062, 20.508, 26.550, 25.091, -0.335, -0.566, 0.604, -26.428, -3.662, -15.320, 22.042, -0.359, 0.699, -0.624, 2.991, -30.334, -67.810, 21.713, 21.510, 20.610
165488, 0.775, -0.197, 0.189, 12.207, 12.634, 25.696, 25.109, -0.316, -0.513, 0.433, -15.076, -1.404, -40.955, 22.027, -0.321, 0.566, -0.449, 2.625, 19.409, -37.781, 21.713, 21.510, 20.610
165520, 0.726, -0.097, 0.210, 0.610, -0.854, 27.466, 25.097, -0.225, -0.484, 0.342, -3.296, 10.681, -47.485, 22.018, -0.225, 0.535, -0.426, 9.460, 4.883, -30.457, 21.707, 21.510, 20.630
165552, 0.610, -0.070, 0.346, -5.066, -7.446, 23.315, 25.115, -0.343, -0.465, 0.242, 3.418, 30.090, -21.729, 22.003, -0.152, 0.497, -0.417, 6.409, 0.183, -2.136, 21.698, 21.550, 20.630
165587, 0.382, -0.052, 0.232, -7.568, -8.789, 14.893, 25.094, -0.179, -0.355, 0.242, 15.076, 5.981, -31.799, 22.003, -0.152, 0.417, -0.320, -6.226, 6.226, -29.236, 21.710, 21.550, 20.630
165619, 0.459, -0.165, 0.061, -19.897, -15.564, 0.671, 25.097, -0.109, -0.324, 0.331, 25.208, -8.484, -40.527, 22.012, -0.220, 0.406, -0.361, 10.803, 1.282, -26.672, 21.701, 21.550, 20.630
165653, 0.611, -0.167, 0.117, -32.715, -16.846, -1.770, 25.112, -0.213, -0.384, 0.432, 35.339, 4.639, -35.645, 22.036, -0.312, 0.617, -0.467, -5.737, -2.625, -14.343, 21.725, 21.490, 20.630
165685, 0.803, -0.124, 0.125, -36.011, -22.034, -10.376, 25.103, -0.375, -0.433, 0.627, 36.316, 5.127, -37.170, 22.027, -0.441, 0.729, -0.320, -22.400, -25.574, -42.725, 21.704, 21.490, 20.630
165717, 1.156, -0.026, -0.068, -42.786, -9.949, -15.930, 25.100, -0.476, -0.534, 0.832, 30.396, 12.329, -55.603, 22.018, -0.570, 0.879, -0.193, -19.714, -35.767, -30.090, 21.701, 21.490, 20.630
165752, 1.438, 0.090, 0.074, -67.932, 5.371, 7.141, 25.118, -0.595, -0.647, 0.912, 34.180, 34.729, -67.505, 22.012, -0.555, 0.884, -0.155, 23.254, -9.949, -22.339, 21.692, 21.550, 20.630
165784, 1.158, -0.131, 0.242, -97.168, 21.912, 19.043, 25.091, -0.417, -0.822, 0.700, 28.992, 23.376, -83.313, 22.045, -0.636, 0.827, -0.480, 87.891, -31.372, 0.916, 21.689, 21.550, 20.630
165816, 1.042, -0.377, 0.249, -102.478, 11.108, 5.127, 25.112, -0.251, -0.710, 0.711, 53.711, 37.415, -97.534, 21.994, -0.447, 0.928, -0.917, 91.675, -40.100, 30.518, 21.686, 21.550, 20.670
165850, 1.167, -0.497, 0.103, -78.308, 7.263, -19.714, 25.118, -0.232, -0.525, 1.050, 65.796, 42.847, -102.295, 22.018, -0.341, 1.042, -0.906, 17.029, -38.818, 9.460, 21.686, 21.610, 20.670
165882, 1.460, -0.447, 0.015, -51.514, 26.001, -20.569, 25.106, -0.196, -0.581, 1.245, 39.246, 45.837, -76.111, 22.039, -0.718, 0.998, -0.682, -26.794, 5.249, -42.175, 21.698, 21.610, 20.670
165917, 1.524, -0.456, -0.014, -28.809, 29.358, -19.897, 25.133, -0.260, -0.653, 1.336, 10.559, 51.697, -42.236, 22.033, -0.991, 1.036, -0.728, -5.066, 29.175, 20.630, 21.683, 21.610, 20.630
165950, 1.528, -0.411, -0.082, -23.193, 39.978, -25.574, 25.109, -0.182, -0.638, 1.294, -16.113, 61.157, -35.095, 22.009, -1.034, 0.885, -0.695, 1.282, 1.099, 52.612, 21.689, 21.610, 20.630
165983, 1.364, -0.483, -0.001, -23.499, 56.824, -37.231, 25.100, -0.101, -0.629, 1.088, -25.879, 65.979, -44.983, 22.027, -0.707, 0.861, -0.808, 8.728, -1.770, 77.698, 21.686, 21.610, 20.630
166018, 1.138, -0.435, 0.085, -11.658, 64.453, -45.227, 25.106, -0.164, -0.604, 0.948, -28.503, 86.609, -35.767, 22.027, -0.472, 0.831, -0.699, -15.442, 0.366, 81.116, 21.692, 21.610, 20.630
166051, 1.037, -0.295, 0.155, -1.709, 64.026, -41.382, 25.100, -0.200, -0.597, 0.817, -34.912, 76.904, -19.470, 22.033, -0.365, 0.758, -0.556, -18.677, 7.935, 67.078, 21.704, 21.610, 20.630
166084, 0.913, -0.249, 0.239, 2.686, 58.044, -37.903, 25.094, -0.229, -0.600, 0.650, -37.292, 74.646, -13.855, 22.033, -0.244, 0.723, -0.535, -12.756, 12.573, 71.289, 21.677, 21.610, 20.630
166119, 0.748, -0.175, 0.297, 5.554, 41.443, -38.940, 25.109, -0.238, -0.612, 0.474, -30.396, 72.937, -11.841, 22.024, -0.102, 0.659, -0.480, -19.653, 1.709, 68.970, 21.665, 21.610, 20.630
166152, 0.635, -0.129, 0.321, 9.521, 30.273, -37.598, 25.115, -0.216, -0.523, 0.408, -10.193, 62.744, -10.010, 22.021, -0.014, 0.620, -0.420, -21.118, 0.305, 49.072, 21.689, 21.630, 20.630
166187, 0.580, -0.050, 0.417, 12.268, 12.878, -24.048, 25.112, -0.232, -0.543, 0.229, -21.118, 57.556, 7.996, 22.033, 0.097, 0.564, -0.353, -21.240, -12.512, 37.537, 21.698, 21.630, 20.610
166220, 0.431, 0.027, 0.417, 10.742, -2.502, -23.132, 25.121, -0.334, -0.536, 0.164, -7.812, 42.725, 18.311, 22.042, 0.170, 0.539, -0.237, -18.433, -17.517, 10.925, 21.698, 21.630, 20.610
166253, 0.451, 0.108, 0.329, 0.244, -14.160, -16.052, 25.130, -0.400, -0.461, 0.236, 22.644, 22.034, 5.554, 22.033, 0.078, 0.535, -0.120, -10.010, -21.667, -21.912, 21.707, 21.610, 20.610
166288, 0.682, 0.171, 0.241, -13.306, -33.813, 1.587, 25.109, -0.464, -0.486, 0.421, 26.001, -3.967, 5.798, 22.054, -0.190, 0.651, -0.099, 10.925, -26.367, -46.875, 21.698, 21.610, 20.630
166321, 0.859, 0.035, 0.196, -36.316, -32.715, 12.756, 25.130, -0.436, -0.616, 0.544, 31.738, -23.926, -2.502, 22.030, -0.386, 0.723, -0.266, 32.349, -30.273, -49.072, 21.680, 21.610, 20.630
166354, 0.984, -0.146, 0.095, -38.147, -18.799, 13.245, 25.112, -0.335, -0.478, 0.716, 60.730, -17.822, -28.381, 22.045, -0.364, 0.792, -0.416, 30.640, -28.992, -28.137, 21.686, 21.630, 20.630
166389, 1.106, -0.148, 0.133, -18.311, -16.174, 21.729, 25.100, -0.406, -0.459, 0.850, 23.743, -16.785, -11.902, 22.018, -0.307, 0.923, -0.433, 23.926, -2.014, -25.452, 21.683, 21.630, 20.630
166422, 1.096, -0.007, 0.253, -13.428, -13.672, 29.053, 25.109, -0.526, -0.664, 0.722, -6.714, -23.682, 12.512, 22.042, -0.420, 0.933, -0.354, 25.818, -1.648, -29.175, 21.707, 21.630, 20.630
166455, 1.167, -0.044, 0.266, -30.273, -13.367, 33.813, 25.100, -0.471, -0.807, 0.716, 2.869, -30.701, -2.563, 22.024, -0.541, 0.905, -0.454, 46.509, -8.484, -15.320, 21.695, 21.710, 20.630
166490, 1.174, -0.312, 0.224, -49.988, -8.301, 27.527, 25.130, -0.276, -0.850, 0.807, 30.762, -25.146, -41.138, 22.042, -0.585, 0.943, -0.742, 48.218, -21.362, -11.108, 21.674, 21.710, 20.590
166523, 1.292, -0.529, 0.152, -46.326, -9.521, 13.611, 25.100, -0.134, -0.702, 1.035, 48.279, -7.202, -53.040, 22.024, -0.646, 0.956, -0.883, 36.316, -13.306, -15.137, 21.680, 21.710, 20.590
166558, 1.355, -0.574, 0.045, -22.217, 1.221, 0.732, 25.124, -0.145, -0.542, 1.174, 20.386, 10.620, -29.419, 22.036, -0.663, 0.971, -0.829, 11.536, -8.728, 0.183, 21.698, 21.670, 20.590
166591, 1.336, -0.370, 0.007, 3.235, 8.423, -6.775, 25.118, -0.327, -0.533, 1.194, -15.930, 7.080, 10.132, 22.030, -0.617, 0.998, -0.597, -4.883, 8.240, 2.319, 21.695, 21.670, 20.630
166624, 1.348, -0.135, 0.125, 14.954, 16.174, 2.563, 25.121, -0.500, -0.645, 0.971, -37.415, 3.967, 25.513, 22.021, -0.557, 0.980, -0.396, 1.831, 22.583, 19.836, 21.683, 21.670, 20.630
166659, 1.168, -0.059, 0.165, 10.376, 19.592, 11.292, 25.103, -0.514, -0.707, 0.818, -35.767, -8.484, 7.874, 22.048, -0.484, 0.899, -0.366, 17.700, 21.057, 14.648, 21.686, 21.710, 20.630
166692, 1.080, -0.107, 0.201, -0.427, 20.142, 19.226, 25.097, -0.423, -0.663, 0.718, -24.048, -6.348, -18.188, 22.027, -0.424, 0.829, -0.414, 30.945, 16.357, 20.691, 21.695, 21.710, 20.630
166725, 0.956, -0.158, 0.196, -4.272, 19.226, 19.775, 25.124, -0.292, -0.608, 0.639, -17.273, -7.751, -30.640, 22.033, -0.377, 0.765, -0.446, 29.541, 8.606, 23.743, 21.692, 21.710, 20.630
166760, 0.850, -0.232, 0.224, -10.132, 15.991, 17.822, 25.097, -0.193, -0.582, 0.575, -10.742, -5.859, -23.254, 22.033, -0.392, 0.705, -0.509, 28.564, -16.907, 17.822, 21.704, 21.710, 20.630
166793, 0.936, -0.206, 0.258, -4.883, -3.662, 10.132, 25.100, -0.198, -0.570, 0.529, -14.343, 2.747, -11.169, 22.033, -0.637, 0.676, -0.456, 15.869, -1.099, -6.042, 21.683, 21.710, 20.650
166828, 0.695, -0.125, 0.099, -3.418, -8.972, 1.221, 25.088, -0.194, -0.554, 0.444, -16.663, 7.874, 2.258, 22.021, -0.466, 0.418, -0.380, 24.109, -25.208, 2.808, 21.707, 21.710, 20.650
166861, 0.734, -0.046, 0.355, -28.320, -11.597, 7.690, 25.118, -0.255, -0.620, 0.277, -20.142, 23.499, 42.786, 22.042, 0.003, 0.512, -0.520, 85.449, -85.388, 180.176, 21.695, 21.770, 20.650
166894, 0.623, -0.086, 0.177, -55.420, 0.122, -15.991, 25.127, -0.288, -0.488, 0.458, -2.502, 0.977, 51.208, 22.054, 0.021, 0.676, -0.441, 81.604, 123.474, 1.160, 21.680, 21.770, 20.610
166929, 0.848, -0.161, 0.139, -46.570, -7.446, -19.775, 25.106, -0.455, -0.402, 0.567, -13.184, -4.395, 19.775, 22.045, -0.194, 0.750, -0.363, 25.330, -59.082, 9.949, 21.698, 21.770, 20.610
166962, 0.911, 0.084, 0.133, -53.772, -1.343, -8.179, 25.103, -0.569, -0.682, 0.458, 18.738, 21.729, -30.884, 22.033, -0.373, 0.745, -0.286, 32.715, -70.190, 5.981, 21.695, 21.670, 20.610
166995, 1.003, -0.035, 0.057, -73.792, 4.272, -5.066, 25.109, -0.463, -0.560, 0.620, 80.505, 30.579, -80.811, 22.036, -0.387, 0.817, -0.433, 44.556, -87.158, 7.568, 21.698, 21.670, 20.610
167030, 1.045, -0.119, 0.082, -74.890, 14.343, -4.944, 25.106, -0.375, -0.446, 0.727, 69.336, 35.522, -96.375, 22.036, -0.376, 0.739, -0.454, 31.372, -56.091, 18.677, 21.704, 21.670, 20.610
167063, 1.021, -0.214, 0.193, -71.045, 8.057, -1.160, 25.106, -0.212, -0.624, 0.696, 46.265, 34.180, -73.120, 22.039, -0.467, 0.748, -0.664, 38.452, -57.861, -2.075, 21.710, 21.670, 20.610
167098, 0.941, -0.413, 0.218, -60.974, 0.732, -16.235, 25.133, 0.006, -0.639, 0.640, 48.889, 27.100, -49.988, 22.036, -0.325, 0.659, -0.818, 55.298, -15.625, 54.749, 21.719, 21.670, 20.630
167131, 0.941, -0.437, 0.405, -45.715, 19.653, -25.757, 25.115, -0.334, -0.625, 0.606, 27.344, 48.035, 3.662, 22.048, -0.051, 0.813, -0.806, 39.490, -39.429, 73.303, 21.734, 21.630, 20.630
167164, 1.030, -0.122, 0.270, -20.203, 11.841, -46.143, 25.124, -0.488, -0.678, 0.772, -3.235, 32.227, 15.686, 22.054, -0.136, 0.963, -0.646, -6.226, -46.509, 46.692, 21.704, 21.630, 20.630
167199, 1.368, -0.116, 0.039, -32.593, 18.433, -22.644, 25.118, -0.482, -0.736, 0.957, 22.217, 19.836, -24.109, 22.045, -0.575, 0.937, -0.552, -5.310, -17.395, 42.297, 21.707, 21.630, 20.630
167232, 1.431, -0.217, -0.033, -39.856, 36.987, -17.517, 25.088, -0.353, -0.674, 1.135, 20.813, 40.466, -69.763, 22.051, -0.851, 0.879, -0.642, 13.123, -21.423, 20.081, 21.698, 21.670, 20.630
167265, 1.480, -0.391, -0.008, -42.297, 47.607, -16.296, 25.121, -0.230, -0.651, 1.221, 4.761, 52.185, -63.110, 22.054, -0.834, 0.900, -0.786, 26.001, -12.451, 37.842, 21.710, 21.670, 20.610
167300, 1.381, -0.427, 0.037, -34.851, 62.866, -22.400, 25.082, -0.194, -0.655, 1.151, -22.400, 56.274, -42.480, 22.057, -0.609, 0.937, -0.846, 17.700, 4.578, 74.646, 21.716, 21.670, 20.610
167333, 1.323, -0.362, 0.099, -24.292, 71.228, -30.518, 25.121, -0.220, -0.640, 0.993, -33.081, 60.730, -28.503, 22.054, -0.513, 0.866, -0.734, 7.690, 12.634, 75.989, 21.686, 21.550, 20.610
167366, 1.125, -0.238, 0.196, -18.860, 70.007, -31.494, 25.127, -0.329, -0.749, 0.832, -43.396, 66.895, -32.654, 22.054, -0.385, 0.831, -0.675, 6.653, 20.630, 71.838, 21.731, 21.550, 20.610
167401, 1.070, -0.117, 0.325, -23.987, 66.528, -30.151, 25.103, -0.400, -0.759, 0.680, -19.226, 75.439, -38.391, 22.042, -0.188, 0.847, -0.584, 8.362, 11.963, 77.942, 21.701, 21.550, 20.610
167434, 1.031, -0.025, 0.371, -28.259, 53.101, -23.376, 25.115, -0.431, -0.658, 0.649, -7.324, 66.406, -42.969, 22.045, -0.088, 0.806, -0.441, 17.639, 17.334, 75.500, 21.680, 21.490, 20.610
167470, 0.846, -0.045, 0.401, -31.250, 35.706, -7.263, 25.100, -0.353, -0.640, 0.499, -15.076, 52.246, -35.706, 22.072, 0.030, 0.754, -0.543, 28.076, 22.095, 64.392, 21.704, 21.490, 20.630
167503, 0.712, -0.146, 0.448, -26.367, 14.404, -8.118, 25.115, -0.276, -0.669, 0.328, -20.569, 46.509, -28.076, 22.045, 0.167, 0.691, -0.591, 26.978, 28.809, 67.749, 21.716, 21.490, 20.630
167536, 0.550, -0.039, 0.444, -21.851, 13.733, -14.832, 25.121, -0.339, -0.600, 0.263, 1.038, 54.871, -14.771, 22.069, 0.180, 0.716, -0.498, 16.357, -18.738, 24.658, 21.689, 21.450, 20.630
167571, 0.683, 0.119, 0.464, -32.043, 0.488, -10.254, 25.133, -0.453, -0.665, 0.301, 6.348, 37.109, -19.470, 22.063, 0.096, 0.658, -0.374, 27.161, -27.771, 7.812, 21.713, 21.450, 20.590
167604, 0.731, -0.053, 0.427, -52.612, -4.700, 2.991, 25.130, -0.283, -0.728, 0.347, 21.179, 14.954, -28.076, 22.084, -0.018, 0.601, -0.574, 37.048, -52.429, 0.061, 21.704, 21.450, 20.590
167637, 0.791, -0.366, 0.329, -51.025, -8.667, 0.427, 25.109, -0.102, -0.604, 0.526, 52.002, 15.381, -27.100, 22.060, 0.031, 0.682, -0.819, 23.437, -58.472, 3.723, 21.683, 21.370, 20.590
167672, 0.849, -0.332, 0.337, -19.043, -4.700, -11.475, 25.139, -0.235, -0.478, 0.618, 41.443, 30.457, 1.892, 22.084, 0.034, 0.694, -0.635, -2.991, -40.344, 6.165, 21.707, 21.370, 20.590
167705, 0.781, -0.125, 0.379, -4.028, -8.667, -4.333, 25.136, -0.318, -0.596, 0.480, -14.038, 0.305, 19.043, 22.081, -0.014, 0.616, -0.510, 1.892, -21.240, -7.263, 21.689, 21.370, 20.590
167740, 0.779, -0.117, 0.365, -1.099, -14.526, 6.348, 25.109, -0.324, -0.632, 0.461, 10.132, -5.798, 13.733, 22.063, -0.050, 0.624, -0.534, 6.775, -5.188, -12.939, 21.698, 21.230, 20.590
167773, 0.771, -0.193, 0.316, -1.770, -15.320, 12.695, 25.115, -0.232, -0.584, 0.498, 11.536, -14.221, 6.531, 22.051, -0.104, 0.574, -0.580, 13.672, 7.507, -12.695, 21.701, 21.230, 20.610
167806, 0.763, -0.295, 0.237, -0.061, -15.564, 14.282, 25.142, -0.104, -0.541, 0.544, 11.902, -19.836, 9.155, 22.054, -0.190, 0.522, -0.658, 15.991, 1.831, -9.277, 21.692, 21.230, 20.610
167841, 0.720, -0.375, 0.247, 8.789, -13.489, 6.348, 25.121, -0.060, -0.519, 0.515, 0.427, -13.794, 28.992, 22.072, -0.140, 0.544, -0.724, 5.615, -0.549, -24.353, 21.674, 21.210, 20.610
167874, 0.752, -0.249, 0.300, 17.334, -15.259, -2.197, 25.115, -0.187, -0.569, 0.486, -10.010, -6.592, 52.246, 22.084, -0.098, 0.569, -0.612, -3.906, -6.897, -32.593, 21.692, 21.210, 20.630
167907, 0.792, -0.121, 0.242, 18.188, -13.489, -1.160, 25.103, -0.382, -0.539, 0.559, -8.057, -14.465, 54.382, 22.081, -0.189, 0.647, -0.489, -3.418, 17.395, -13.672, 21.707, 21.210, 20.630
167942, 0.964, -0.034, 0.206, 11.841, -15.198, 10.071, 25.103, -0.501, -0.566, 0.687, -17.151, -28.076, 55.847, 22.042, -0.287, 0.801, -0.456, 7.385, 10.376, -20.813, 21.692, 21.150, 20.630
167975, 1.187, -0.000, 0.172, 1.526, -10.864, 25.879, 25.109, -0.546, -0.560, 0.798, -8.545, -31.982, 102.539, 22.084, -0.384, 0.926, -0.507, 22.278, 11.169, -24.841, 21.701, 21.150, 20.590
168010, 1.375, -0.153, 0.205, -11.169, -3.113, 39.551, 25.106, -0.678, -0.700, 0.963, -39.917, -28.931, 122.925, 22.054, -0.445, 0.975, -0.713, 44.861, 8.545, -21.057, 21.716, 21.150, 20.590
168043, 1.326, -0.351, 0.205, -11.414, 3.235, 38.879, 25.094, -0.537, -0.676, 0.981, -51.514, -48.645, 112.915, 22.036, -0.443, 0.921, -0.926, 41.992, 24.841, -12.451, 21.710, 21.110, 20.590
168076, 1.223, -0.475, 0.223, -0.305, 3.784, 29.602, 25.124, -0.494, -0.688, 0.868, -79.651, -28.503, 122.559, 22.036, -0.365, 0.867, -0.989, 26.245, 21.362, -5.859, 21.686, 21.110, 20.610
168111, 1.195, -0.385, 0.257, 13.489, -1.831, 16.968, 25.112, -0.632, -0.786, 0.733, -54.810, -17.883, 64.270, 22.066, -0.346, 0.858, -0.893, 12.512, 33.936, 2.808, 21.698, 21.110, 20.610
168142, 1.164, -0.291, 0.248, 11.414, -4.639, 13.733, 25.127, -0.643, -0.723, 0.685, -28.748, -4.089, 36.377, 22.057, -0.354, 0.828, -0.804, 12.573, 33.630, 10.864, 21.695, 21.050, 20.610
168174, 1.152, -0.304, 0.285, 0.549, -7.080, 18.494, 25.127, -0.666, -0.762, 0.681, -17.273, 6.409, 14.771, 22.054, -0.290, 0.799, -0.836, 22.278, 20.630, 11.597, 21.701, 21.050, 20.590
168208, 1.092, -0.404, 0.294, -1.892, -4.089, 16.724, 25.133, -0.564, -0.720, 0.672, -14.099, 4.089, -5.615, 22.084, -0.184, 0.763, -0.897, 21.301, 28.015, 8.667, 21.683, 21.050, 20.590
168240, 1.008, -0.413, 0.267, 6.226, -1.038, 10.864, 25.094, -0.481, -0.665, 0.624, -13.123, 4.700, -14.648, 22.039, -0.171, 0.688, -0.857, 16.541, 39.063, 18.799, 21.704, 21.050, 20.590
168272, 0.919, -0.424, 0.247, 12.329, 0.061, 7.446, 25.115, -0.372, -0.628, 0.557, -20.630, 5.859, -12.695, 22.069, -0.107, 0.720, -0.813, 28.259, 44.312, -8.545, 21.692, 21.050, 20.630
168306, 0.771, -0.460, 0.343, 16.235, 0.061, 3.845, 25.112, -0.295, -0.671, 0.370, -31.189, 5.066, 5.615, 22.063, 0.003, 0.474, -0.861, 3.418, 46.448, 33.264, 21.683, 21.050, 20.630
168338, 0.634, -0.389, 0.605, 19.165, 0.427, 4.150, 25.103, -0.367, -0.757, 0.069, -49.133, 0.061, 54.382, 22.057, 0.327, 0.393, -0.858, 8.850, 48.401, 29.175, 21.689, 21.010, 20.630
168372, 0.348, -0.483, 0.648, 15.808, -23.499, -9.216, 25.097, -0.301, -0.780, -0.140, -30.640, -22.705, 45.227, 22.060, 0.438, 0.350, -0.907, -12.329, 32.349, 15.686, 21.677, 21.010, 20.630
168404, 0.381, -0.288, 0.525, 13.428, -25.879, -29.541, 25.103, -0.376, -0.672, -0.133, 24.963, -20.081, 36.804, 22.063, 0.305, 0.438, -0.678, -46.448, -11.047, -16.296, 21.701, 21.010, 20.630
168436, 0.557, -0.079, 0.381, 10.803, -31.677, -40.955, 25.118, -0.483, -0.510, 0.077, 62.256, -4.089, 26.978, 22.060, 0.174, 0.468, -0.375, -38.574, -44.312, -33.081, 21.695, 21.070, 20.630
168470, 0.628, 0.069, 0.212, 4.456, -37.415, -30.396, 25.097, -0.568, -0.273, 0.311, 81.543, -8.728, 3.662, 22.072, 0.011, 0.552, -0.250, -31.677, -53.406, -32.410, 21.692, 21.070, 20.610
168502, 0.737, 0.101, 0.133, -7.874, -34.546, -13.977, 25.079, -0.622, -0.194, 0.463, 63.293, -18.311, -3.723, 22.090, -0.108, 0.572, -0.234, -12.329, -51.636, -32.532, 21.677, 21.070, 20.610
168534, 0.800, 0.038, 0.083, -19.836, -29.236, 1.465, 25.112, -0.559, -0.251, 0.521, 31.555, -24.719, -19.653, 22.063, -0.156, 0.601, -0.305, 5.432, -51.392, -32.410, 21.677, 21.050, 20.610
168568, 0.801, -0.119, 0.162, -26.611, -25.940, 14.893, 25.121, -0.493, -0.419, 0.479, 5.981, -25.574, -14.343, 22.060, -0.139, 0.681, -0.527, 25.391, -59.509, -47.791, 21.698, 21.050, 20.570
168600, 0.797, -0.189, 0.267, -18.555, -15.381, 13.123, 25.103, -0.514, -0.463, 0.447, 14.221, -31.738, -3.845, 22.066, -0.024, 0.704, -0.600, 9.644, -70.740, -27.649, 21.683, 21.050, 20.570
168634, 0.890, -0.092, 0.162, -5.188, -14.587, 3.296, 25.094, -0.588, -0.393, 0.576, 18.982, -34.119, 0.366, 22.051, -0.122, 0.852, -0.448, -5.554, -47.852, -42.175, 21.689, 21.010, 20.570
168666, 1.124, -0.027, 0.027, -6.287, -11.658, 11.353, 25.106, -0.676, -0.357, 0.787, 30.334, -40.955, -3.540, 22.066, -0.395, 0.918, -0.412, 13.367, -16.724, -51.331, 21.677, 21.010, 20.590
168698, 1.402, -0.072, -0.067, -14.404, -8.057, 20.935, 25.085, -0.767, -0.538, 1.044, 23.621, -25.391, -6.165, 22.072, -0.838, 1.004, -0.575, 28.809, 19.531, -47.302, 21.698, 21.010, 20.590
168732, 1.768, -0.403, -0.066, -35.034, 9.827, 29.541, 25.088, -0.712, -0.682, 1.279, 21.484, -10.498, -36.926, 22.060, -0.938, 1.025, -0.912, 47.546, 0.854, -9.033, 21.686, 21.070, 20.590
168764, 1.610, -0.636, -0.095, -29.968, 25.391, 9.094, 25.088, -0.456, -0.691, 1.271, 2.319, 23.499, -64.331, 22.054, -0.779, 1.062, -1.151, 38.879, 7.874, 24.658, 21.680, 21.070, 20.570
168796, 1.444, -0.567, 0.062, -14.587, 39.368, -14.160, 25.115, -0.417, -0.734, 1.089, -1.709, 36.926, -30.212, 22.057, -0.604, 0.961, -1.056, 8.606, 2.625, 34.912, 21.689, 21.070, 20.570
168830, 1.301, -0.449, 0.128, -6.470, 38.513, -23.254, 25.100, -0.519, -0.678, 0.938, -13.062, 40.466, 18.738, 22.066, -0.489, 0.901, -0.932, -2.625, 3.235, 37.964, 21.677, 21.050, 20.570
168862, 1.227, -0.359, 0.202, -5.859, 37.415, -28.442, 25.118, -0.619, -0.691, 0.815, -10.986, 43.762, 22.644, 22.048, -0.417, 0.883, -0.851, -7.751, -3.601, 40.283, 21.671, 21.050, 20.570
168896, 1.155, -0.273, 0.244, -7.080, 31.982, -32.166, 25.109, -0.658, -0.645, 0.727, 4.700, 42.969, 9.094, 22.051, -0.312, 0.870, -0.753, -8.911, -3.540, 44.434, 21.662, 21.050, 20.570
168928, 1.083, -0.202, 0.229, -6.470, 24.109, -30.884, 25.091, -0.637, -0.549, 0.668, 18.005, 42.419, -8.240, 22.039, -0.229, 0.815, -0.640, -11.963, -5.371, 38.086, 21.671, 21.050, 20.570
168960, 0.961, -0.158, 0.265, -5.066, 18.066, -25.269, 25.106, -0.597, -0.476, 0.573, 23.132, 42.236, -17.822, 22.051, -0.140, 0.725, -0.560, -2.869, 14.038, 38.452, 21.674, 21.050, 20.570
168995, 0.814, -0.111, 0.287, -2.869, 13.733, -20.325, 25.103, -0.557, -0.476, 0.454, 6.653, 35.950, -13.977, 22.057, -0.033, 0.636, -0.534, 2.869, 10.254, 32.288, 21.683, 21.050, 20.570
169027, 0.712, -0.073, 0.387, -5.005, 15.381, -15.808, 25.112, -0.584, -0.507, 0.296, -1.587, 31.799, -30.396, 22.057, 0.073, 0.613, -0.514, 8.118, 3.418, 26.489, 21.665, 21.010, 20.570
169059, 0.666, -0.045, 0.482, -14.404, 14.832, -7.507, 25.100, -0.675, -0.589, 0.211, 16.602, 13.428, -55.054, 22.066, 0.137, 0.616, -0.552, 9.033, -9.644, 13.000, 21.689, 21.010, 20.570
169093, 0.711, -0.156, 0.438, -20.081, 9.949, -2.319, 25.103, -0.565, -0.645, 0.304, 57.556, 6.348, -117.493, 22.048, 0.126, 0.689, -0.648, 16.602, -7.874, -3.662, 21.656, 21.010, 20.570
169125, 0.953, -0.287, 0.241, -19.897, 13.550, 0.793, 25.112, -0.452, -0.636, 0.703, 84.656, 15.869, -145.996, 22.033, -0.173, 0.795, -0.749, 4.761, -13.916, -24.048, 21.650, 21.010, 20.570
169158, 1.065, -0.354, 0.217, 0.610, 11.169, -1.892, 25.124, -0.396, -0.635, 0.747, 48.401, 20.813, -169.373, 22.054, -0.261, 0.715, -0.696, -6.958, -6.653, -18.921, 21.674, 21.010, 20.570
169192, 0.948, -0.231, 0.256, 28.992, 2.930, 2.380, 25.106, -0.307, -0.337, 0.785, 44.434, 28.625, -124.329, 22.087, -0.166, 0.749, -0.593, -5.310, 36.499, -13.306, 21.665, 21.010, 20.570
169224, 0.931, -0.121, 0.306, 33.325, 1.221, 11.658, 25.118, -0.360, -0.389, 0.728, -5.798, -25.757, -6.470, 22.051, -0.155, 0.725, -0.563, 0.305, 46.265, -24.170, 21.665, 20.870, 20.570
169258, 0.915, -0.137, 0.233, 25.696, 1.770, 17.944, 25.103, -0.358, -0.633, 0.556, -77.209, -33.203, 16.357, 22.081, -0.317, 0.635, -0.579, 4.578, 46.021, -30.090, 21.680, 20.870, 20.590
169290, 0.894, -0.285, 0.223, 11.719, 4.883, 20.752, 25.112, -0.200, -0.746, 0.538, -17.517, -22.034, -16.663, 22.039, -0.340, 0.577, -0.708, 21.301, 43.945, -14.099, 21.689, 20.870, 20.590
169323, 0.854, -0.434, 0.294, 5.066, 6.165, 10.620, 25.100, -0.059, -0.667, 0.592, 13.733, -11.658, -32.471, 22.045, -0.240, 0.590, -0.885, 15.381, 15.381, -33.875, 21.659, 20.710, 20.590
169357, 0.847, -0.396, 0.204, 18.372, 14.954, -8.484, 25.121, -0.120, -0.519, 0.626, 10.742, -2.258, -17.639, 22.054, -0.231, 0.667, -0.729, -14.709, 32.471, -20.447, 21.680, 20.710, 20.550
169389, 0.937, -0.200, 0.237, 30.029, 4.211, -12.451, 25.094, -0.332, -0.517, 0.715, -8.179, 2.991, 16.113, 22.078, -0.318, 0.728, -0.583, -9.949, 68.176, -25.879, 21.674, 20.710, 20.550
169421, 1.037, -0.046, 0.181, 29.907, 1.038, -6.348, 25.100, -0.522, -0.618, 0.787, -31.616, -5.066, 20.813, 22.078, -0.373, 0.837, -0.494, -0.427, 91.370, -14.404, 21.671, 20.450, 20.550
169455, 1.290, 0.053, 0.199, 19.531, 5.188, 10.315, 25.097, -0.652, -0.704, 0.847, -17.212, -12.878, 3.357, 22.084, -0.384, 0.976, -0.519, 14.709, 102.783, 3.357, 21.680, 20.450, 20.590
169487, 1.354, 0.006, 0.170, 7.202, 12.207, 26.611, 25.112, -0.653, -0.704, 0.946, -13.733, -19.226, -12.939, 22.117, -0.387, 0.993, -0.610, 21.362, 81.970, 9.277, 21.662, 20.450, 20.590
169521, 1.294, -0.199, 0.230, -2.563, 18.188, 40.649, 25.091, -0.400, -0.727, 0.908, -23.071, -28.503, -25.513, 22.102, -0.303, 0.921, -0.870, 26.489, 59.387, 20.264, 21.650, 20.390, 20.590
169554, 1.161, -0.366, 0.236, 1.160, 21.240, 34.912, 25.100, -0.208, -0.701, 0.829, -27.283, -20.081, -2.319, 22.126, -0.181, 0.907, -0.918, 16.296, 38.391, 22.217, 21.650, 20.390, 20.570
169587, 1.121, -0.391, 0.270, 9.583, 15.808, 28.931, 25.055, -0.227, -0.681, 0.823, -37.415, -10.986, 48.401, 22.126, -0.117, 0.833, -0.862, 13.855, 39.185, 20.874, 21.650, 20.390, 20.570
169622, 1.014, -0.324, 0.332, 17.456, 6.104, 23.621, 25.061, -0.268, -0.726, 0.625, -50.354, -13.550, 40.527, 22.153, -0.024, 0.752, -0.808, 11.780, 37.720, 20.813, 21.674, 20.330, 20.570
169655, 0.847, -0.301, 0.413, 17.456, -0.366, 18.372, 25.073, -0.254, -0.734, 0.445, -38.818, -9.888, 56.030, 22.153, 0.109, 0.694, -0.731, 8.240, 18.066, 19.836, 21.665, 20.330, 20.550
169688, 0.786, -0.267, 0.438, 16.174, -9.277, 15.259, 25.118, -0.258, -0.674, 0.369, -24.536, -5.371, 91.980, 22.159, 0.178, 0.604, -0.675, 4.272, 20.752, 24.963, 21.668, 20.330, 20.550
169723, 0.647, -0.210, 0.536, 14.709, -17.883, 16.846, 25.067, -0.329, -0.750, 0.240, -47.974, -11.658, 117.310, 22.138, 0.274, 0.532, -0.672, 6.592, 14.526, 30.701, 21.671, 20.430, 20.550
169756, 0.468, -0.229, 0.848, -6.042, -23.682, 21.057, 25.064, -0.412, -0.922, -0.177, -71.533, -27.161, 135.437, 22.159, 0.560, 0.463, -0.770, 24.292, -31.311, -13.428, 21.674, 20.430, 20.550
169791, 0.397, -0.570, 0.490, -6.653, -34.180, -6.958, 25.085, -0.182, -0.755, 0.049, 15.686, -32.837, 108.948, 22.183, 0.449, 0.536, -0.799, -11.719, -56.885, -43.701, 21.662, 20.430, 20.550
169824, 0.620, -0.235, 0.204, 28.137, -45.654, -23.071, 25.061, -0.341, -0.286, 0.479, 49.438, -35.034, 74.829, 22.159, 0.046, 0.509, -0.448, -43.884, 1.465, -26.184, 21.680, 20.490, 20.550
169857, 0.710, -0.103, 0.102, 31.921, -50.171, -9.705, 25.076, -0.440, -0.358, 0.538, -13.306, -28.259, 85.754, 22.174, -0.109, 0.531, -0.396, -9.644, -6.958, -50.232, 21.677, 20.490, 20.590
169892, 0.799, -0.059, -0.092, 42.236, -44.983, -10.498, 25.070, -0.441, -0.230, 0.603, 7.568, -49.866, 52.551, 22.174, -0.326, 0.518, -0.294, -15.320, 13.000, -36.316, 21.677, 20.550, 20.590
169925, 0.825, -0.056, 0.173, 28.809, -28.809, 9.705, 25.082, -0.552, -0.406, 0.464, -36.499, -27.588, 38.879, 22.189, -0.106, 0.559, -0.478, 3.906, 6.104, -40.344, 21.680, 20.550, 20.590
169958, 0.697, -0.153, 0.242, 24.353, -34.546, 8.789, 25.070, -0.435, -0.389, 0.397, -53.223, -51.636, 57.251, 22.198, 0.002, 0.643, -0.570, -14.282, -33.264, 19.226, 21.677, 20.550, 20.570
169993, 0.737, -0.203, 0.267, 15.991, -25.330, 7.996, 25.061, -0.487, -0.570, 0.300, -48.218, -53.101, 51.819, 22.201, -0.030, 0.605, -0.642, -38.086, -22.400, 11.475, 21.674, 20.610, 20.570
170026, 0.748, -0.184, 0.230, 11.658, -28.259, 0.244, 25.035, -0.477, -0.604, 0.292, -8.606, -51.514, 34.851, 22.177, -0.024, 0.660, -0.590, -9.399, 43.579, 14.832, 21.677, 20.610, 20.570
170059, 1.010, -0.399, 0.171, -2.136, -25.269, 19.531, 25.064, -0.468, -0.763, 0.659, 13.977, -32.043, 14.099, 22.207, -0.109, 0.814, -0.814, 12.451, 27.527, -9.277, 21.659, 20.610, 20.550
170094, 1.462, -0.620, 0.041, 4.150, -25.024, 9.644, 25.049, -0.536, -0.915, 1.107, 31.860, -37.292, 22.400, 22.225, -0.400, 1.180, -1.153, 1.587, 2.869, -28.687, 21.656, 20.710, 20.550
170127, 1.886, -0.659, -0.094, 11.108, -11.108, -15.625, 25.058, -0.677, -0.854, 1.402, 13.367, -20.508, 38.330, 22.198, -0.542, 1.356, -1.141, -3.845, -18.188, -11.108, 21.659, 20.710, 20.550
170162, 1.819, -0.564, -0.136, 25.391, 9.338, -20.813, 25.064, -0.753, -0.844, 1.433, -15.320, 9.583, 20.020, 22.204, -0.604, 1.312, -1.051, -10.681, -19.592, -0.916, 21.662, 20.710, 20.570
170195, 1.562, -0.450, 0.046, 26.123, 22.644, -17.029, 25.035, -0.758, -0.749, 1.144, -41.748, 13.855, 23.254, 22.240, -0.392, 1.106, -0.879, -3.479, 4.944, 17.700, 21.668, 20.730, 20.570
170228, 1.424, -0.340, 0.008, 29.724, 34.241, -18.799, 25.043, -0.700, -0.651, 1.003, -45.593, 19.531, 10.498, 22.195, -0.336, 1.064, -0.718, 16.724, 53.284, 17.151, 21.650, 20.730, 20.570
170263, 1.225, -0.208, 0.036, 31.677, 42.419, -12.451, 25.017, -0.624, -0.531, 0.801, -45.166, 29.053, -4.883, 22.213, -0.172, 0.967, -0.595, 19.287, 65.491, 21.362, 21.665, 20.730, 20.570
170296, 0.979, -0.141, 0.149, 23.193, 47.058, -3.296, 25.046, -0.603, -0.545, 0.566, -58.838, 38.391, -6.592, 22.213, -0.235, 0.735, -0.704, 34.851, 30.762, -3.357, 21.665, 20.710, 20.570
170329, 0.798, -0.178, 0.229, 19.775, 39.246, -1.465, 25.067, -0.494, -0.534, 0.349, -46.631, 35.034, -23.987, 22.186, -0.190, 0.509, -0.518, 10.254, 29.663, 22.156, 21.668, 20.710, 20.530
170364, 0.579, -0.166, 0.369, 7.263, 36.560, 6.104, 25.035, -0.365, -0.554, 0.099, -36.865, 44.189, -30.884, 22.186, 0.164, 0.480, -0.561, 25.452, 17.273, 16.663, 21.653, 20.710, 20.530
170397, 0.474, -0.191, 0.588, 3.052, 25.574, 10.559, 25.055, -0.386, -0.596, -0.069, -18.066, 27.283, -15.137, 22.162, 0.435, 0.488, -0.651, 17.578, 8.118, 0.305, 21.671, 20.670, 20.530
170432, 0.325, -0.125, 0.703, 9.155, 2.136, -1.282, 25.049, -0.491, -0.533, -0.152, 2.197, -2.075, 6.531, 22.180, 0.496, 0.444, -0.556, -3.113, -4.944, 19.653, 21.662, 20.670, 20.530
170465, 0.295, -0.108, 0.450, 11.963, -28.076, -2.502, 25.049, -0.407, -0.429, 0.032, 28.931, -35.034, -14.832, 22.174, 0.264, 0.410, -0.482, -16.052, 56.396, -1.526, 21.686, 20.670, 20.530
170498, 0.495, -0.165, 0.228, 15.442, -44.373, 6.470, 25.070, -0.264, -0.392, 0.262, 38.086, -48.279, -15.015, 22.162, -0.017, 0.410, -0.510, -39.001, 36.743, -8.484, 21.674, 20.670, 20.530
170533, 0.626, -0.171, 0.131, 16.663, -53.406, 12.207, 25.038, -0.278, -0.389, 0.383, 12.634, -53.223, 21.545, 22.165, 0.058, 0.540, -0.455, -68.176, -18.494, -18.921, 21.641, 20.670, 20.490
170566, 0.763, -0.131, 0.104, 18.555, -49.438, 7.507, 25.049, -0.440, -0.411, 0.465, 8.911, -56.152, 29.053, 22.186, 0.129, 0.738, -0.214, -14.771, 28.870, -28.809, 21.668, 20.670, 20.490
170599, 0.864, -0.008, 0.091, 17.517, -43.701, 9.033, 24.993, -0.594, -0.377, 0.541, 4.211, -58.167, 21.240, 22.195, -0.055, 0.762, -0.282, 11.719, 24.292, -41.626, 21.674, 20.810, 20.490
170634, 0.971, -0.062, 0.007, 1.709, -28.320, 27.832, 25.055, -0.539, -0.474, 0.604, 1.892, -50.049, -10.437, 22.189, -0.208, 0.726, -0.378, 31.006, 6.226, -43.152, 21.650, 20.810, 20.530
170667, 0.982, -0.217, 0.134, -14.038, -17.822, 48.157, 25.017, -0.474, -0.663, 0.598, -2.502, -40.222, -9.277, 22.162, -0.223, 0.768, -0.722, 51.270, 3.052, -32.288, 21.671, 20.810, 20.530
170703, 1.076, -0.458, 0.123, -22.278, -11.597, 35.645, 25.035, -0.396, -0.709, 0.690, 6.531, -43.823, -9.705, 22.183, -0.088, 0.900, -0.875, 44.189, -3.662, -17.029, 21.659, 20.890, 20.530
170736, 1.204, -0.507, 0.050, -3.601, -16.235, 13.794, 24.999, -0.407, -0.672, 0.946, 15.015, -39.612, -4.700, 22.177, -0.108, 1.096, -0.849, 23.254, 6.348, -17.761, 21.650, 20.890, 20.550
170769, 1.509, -0.454, -0.171, 12.878, -1.160, 6.531, 25.017, -0.455, -0.647, 1.211, 17.578, -40.161, -8.484, 22.159, -0.430, 1.144, -0.781, 5.066, 13.184, -30.029, 21.629, 20.890, 20.550
170804, 1.627, -0.265, -0.015, 18.616, -4.578, 20.508, 25.043, -0.704, -0.727, 1.205, -43.518, -22.827, 52.063, 22.192, -0.396, 1.260, -0.848, 24.231, 16.724, -11.353, 21.614, 20.930, 20.550
170837, 1.567, -0.396, 0.028, 13.306, 7.629, 22.766, 25.035, -0.715, -0.795, 1.055, -37.537, -12.146, 13.062, 22.162, -0.316, 1.131, -0.897, 31.860, 27.771, 5.005, 21.629, 20.930, 20.530
170870, 1.353, -0.378, 0.133, 14.099, 14.648, 24.536, 25.014, -0.580, -0.801, 0.859, -31.616, 2.380, -10.376, 22.180, -0.150, 1.006, -0.903, 31.860, 29.236, 13.611, 21.647, 20.930, 20.530
170905, 1.146, -0.438, 0.242, 11.780, 14.404, 17.334, 24.990, -0.509, -0.790, 0.664, -34.241, 3.113, 4.028, 22.162, 0.006, 0.884, -0.898, 23.376, 22.034, 13.428, 21.629, 20.950, 20.530
170938, 0.963, -0.439, 0.261, 10.193, 11.597, 8.240, 25.023, -0.445, -0.767, 0.501, -19.592, 5.432, -3.540, 22.186, 0.039, 0.744, -0.854, 15.320, 22.034, 7.874, 21.668, 20.950, 20.550
170971, 0.884, -0.395, 0.284, 14.465, 4.883, -2.502, 25.026, -0.378, -0.703, 0.426, -2.136, 7.751, -6.042, 22.168, 0.089, 0.684, -0.757, 7.385, 23.071, 6.042, 21.668, 20.950, 20.550
171013, 0.763, -0.273, 0.320, 13.428, -6.042, -10.803, 25.002, -0.452, -0.581, 0.357, 3.296, 3.479, 13.184, 22.144, 0.135, 0.622, -0.632, -8.972, 10.376, 6.897, 21.629, 20.990, 20.550
171045, 0.753, -0.167, 0.327, 7.996, -9.705, -10.498, 25.017, -0.521, -0.561, 0.284, 7.629, 2.625, 13.489, 22.174, 0.149, 0.560, -0.525, -6.897, 0.977, 7.996, 21.668, 20.990, 20.530
171079, 0.629, -0.122, 0.290, -2.563, -11.963, -6.042, 25.011, -0.471, -0.497, 0.264, 16.357, -0.732, -7.385, 22.186, 0.100, 0.534, -0.510, 0.977, -2.808, -0.488, 21.665, 20.990, 20.530
171111, 0.695, -0.224, 0.131, -13.428, -9.277, -6.592, 25.020, -0.320, -0.492, 0.396, 35.950, -2.136, -28.931, 22.153, -0.012, 0.583, -0.542, 2.258, -9.033, -6.897, 21.680, 20.990, 20.530
171143, 0.769, -0.212, 0.083, -13.550, -2.014, -10.437, 25.020, -0.317, -0.424, 0.531, 29.297, 3.296, -10.925, 22.168, -0.041, 0.624, -0.497, -2.258, -11.475, -6.714, 21.662, 20.990, 20.550
171178, 0.806, -0.173, 0.140, -13.672, -0.366, -4.761, 25.008, -0.431, -0.411, 0.515, 4.761, -0.793, 11.963, 22.126, 0.013, 0.611, -0.519, 2.502, -12.329, -5.981, 21.686, 21.010, 20.550
171210, 0.792, -0.203, 0.100, -10.376, 0.183, -3.601, 25.026, -0.426, -0.479, 0.532, 8.667, -4.456, -6.348, 22.165, -0.003, 0.669, -0.497, 4.944, -2.075, -5.737, 21.650, 21.010, 20.550
171242, 0.830, -0.258, 0.102, -9.399, 5.676, 2.441, 25.023, -0.344, -0.503, 0.553, 15.320, -1.709, -15.137, 22.171, -0.014, 0.642, -0.564, 6.531, -0.732, -6.714, 21.656, 21.010, 20.530
171276, 0.875, -0.311, 0.206, -5.371, -2.441, 8.728, 25.011, -0.372, -0.563, 0.569, 2.808, -10.681, 11.902, 22.165, 0.058, 0.750, -0.701, 4.456, -1.892, -8.118, 21.662, 20.990, 20.530
171308, 0.928, -0.325, 0.197, 3.906, -6.042, 0.977, 25.008, -0.450, -0.543, 0.636, 4.944, -19.531, 21.240, 22.144, 0.059, 0.838, -0.668, -6.653, 0.183, -16.418, 21.653, 20.990, 20.530
